#                                                     Mon Jul 29 20:44:13 2019
#          I------------------------------------------------------------------------------------------------------------------------I
#          I                                                                                                                        I
#          I      BC_GALAXEV  ---  MODEL PARAMETERS:   Generic file name for this model = cb2018_z030_chab_hr_pmiles_ssp            I
#          I                                                                                                                        I
#          I      TRACKS: Padova 2013 + Marigo 2013, X=0.668, Y=0.302, Z=0.030                                                      I
#          I                                                                                                                        I
#          I      S.F.R.: SSP = Zero Length Burst at t = 0                                                                          I
#          I                                                                                                                        I
#          I                                                                                                                        I
#          I      I.M.F.: Lognormal + power law                                                                                     I
#          I                                                                      mass in      number                               I
#          I                                                  from m     to m     segment    of stars      c                        I
#          I                                        lognormal   0.10     1.00      0.4057      1.3076                               I
#          I                                          x=1.3     1.00   100.00      0.5943      0.1827                               I
#          I                                                                                                                        I
#          I                                                           totals      1.0000      1.4903  0.6710 Mo/star               I
#          I                                                                                                                        I
#          I                                                                                                                        I
#          I                                                                                                                        I
#          I                                                                                                                        I
#          I      LISTED: Rest frame properties                                                                                     I
#          I                                                                                                                        I
#          I                                                                                                                        I
#          I                              (C) 1995-2017 G. Bruzual A. & S. Charlot - All Rights Reserved                            I
#          I------------------------------------------------------------------------------------------------------------------------I
#
#    (1)        (2)      (3)      (4)      (5)      (6)      (7)       (8)        (9)        (10)      (11)      (12)      (13)      (14)      (15)
#
# Index_No.    WO-1:    WO-2:    WO-3:    WO-4:    GC-1:    4000A    DTT-Ca1    DTT-Ca2    DTT-Ca3   DTT-MgI     DM-04     DM-04     DM-04       BH:
# log-age    HdeltaA  HgammaA  HdeltaF  HgammaF  D(4000)    B4_VN   CaII8498   CaII8542   CaII8662   MgI8807   H8_3889   H9_3835  H10_3798     BH-HK
#   (yr)        (A)      (A)      (A)      (A)       .        .         (A)        (A)        (A)       (A)       (A)       (A)       (A)        (A)
  4.000000    7.2153   7.6936   5.9801   6.0931   1.1104   1.0343   999.0000   999.0000   999.0000  999.0000    6.6989    5.6856    4.1438    0.1194
  4.301030    7.2153   7.6936   5.9801   6.0931   1.1104   1.0343   999.0000   999.0000   999.0000  999.0000    6.6989    5.6856    4.1438    0.1194
  4.477121    7.2153   7.6936   5.9801   6.0931   1.1104   1.0343   999.0000   999.0000   999.0000  999.0000    6.6989    5.6856    4.1438    0.1194
  4.602060    7.2153   7.6936   5.9801   6.0931   1.1104   1.0343   999.0000   999.0000   999.0000  999.0000    6.6989    5.6856    4.1438    0.1194
  4.698970    7.2153   7.6936   5.9801   6.0931   1.1104   1.0343   999.0000   999.0000   999.0000  999.0000    6.6989    5.6856    4.1438    0.1194
  4.778151    7.2153   7.6936   5.9801   6.0931   1.1104   1.0343   999.0000   999.0000   999.0000  999.0000    6.6989    5.6856    4.1438    0.1194
  4.845098    7.2154   7.6936   5.9802   6.0931   1.1104   1.0343   999.0000   999.0000   999.0000  999.0000    6.6989    5.6857    4.1438    0.1194
  4.903090    7.2152   7.6935   5.9800   6.0929   1.1104   1.0343   999.0000   999.0000   999.0000  999.0000    6.6987    5.6855    4.1437    0.1194
  4.954243    7.2148   7.6932   5.9797   6.0926   1.1103   1.0343   999.0000   999.0000   999.0000  999.0000    6.6984    5.6851    4.1434    0.1194
  5.000000    7.2146   7.6930   5.9796   6.0925   1.1103   1.0342   999.0000   999.0000   999.0000  999.0000    6.6983    5.6849    4.1433    0.1194
  5.060698    7.2140   7.6927   5.9792   6.0921   1.1103   1.0342   999.0000   999.0000   999.0000  999.0000    6.6978    5.6844    4.1429    0.1194
  5.113944    7.2134   7.6922   5.9787   6.0916   1.1102   1.0342   999.0000   999.0000   999.0000  999.0000    6.6973    5.6838    4.1424    0.1194
  5.161368    7.2133   7.6921   5.9786   6.0915   1.1102   1.0342   999.0000   999.0000   999.0000  999.0000    6.6972    5.6838    4.1424    0.1194
  5.204120    7.2132   7.6921   5.9786   6.0915   1.1102   1.0342   999.0000   999.0000   999.0000  999.0000    6.6972    5.6837    4.1423    0.1194
  5.243038    7.2131   7.6920   5.9785   6.0914   1.1102   1.0342   999.0000   999.0000   999.0000  999.0000    6.6971    5.6836    4.1422    0.1194
  5.255272    7.2128   7.6918   5.9783   6.0912   1.1102   1.0342   999.0000   999.0000   999.0000  999.0000    6.6969    5.6833    4.1420    0.1194
  5.278754    7.2126   7.6916   5.9781   6.0910   1.1101   1.0341   999.0000   999.0000   999.0000  999.0000    6.6967    5.6831    4.1418    0.1194
  5.301030    7.2125   7.6916   5.9781   6.0909   1.1101   1.0341   999.0000   999.0000   999.0000  999.0000    6.6966    5.6830    4.1418    0.1194
  5.397940    7.2119   7.6912   5.9776   6.0905   1.1101   1.0341   999.0000   999.0000   999.0000  999.0000    6.6962    5.6825    4.1414    0.1193
  5.477121    7.2110   7.6905   5.9770   6.0898   1.1100   1.0341   999.0000   999.0000   999.0000  999.0000    6.6954    5.6817    4.1407    0.1193
  5.544068    7.2104   7.6901   5.9765   6.0893   1.1100   1.0340   999.0000   999.0000   999.0000  999.0000    6.6949    5.6811    4.1403    0.1193
  5.602060    7.2097   7.6896   5.9760   6.0888   1.1099   1.0340   999.0000   999.0000   999.0000  999.0000    6.6944    5.6805    4.1398    0.1193
  5.653213    7.2096   7.6895   5.9759   6.0887   1.1099   1.0340   999.0000   999.0000   999.0000  999.0000    6.6943    5.6803    4.1397    0.1193
  5.698970    7.2094   7.6894   5.9758   6.0886   1.1099   1.0340   999.0000   999.0000   999.0000  999.0000    6.6942    5.6802    4.1396    0.1193
  5.740363    7.2093   7.6893   5.9757   6.0885   1.1099   1.0340   999.0000   999.0000   999.0000  999.0000    6.6941    5.6801    4.1395    0.1193
  5.778151    7.2089   7.6890   5.9754   6.0882   1.1098   1.0340   999.0000   999.0000   999.0000  999.0000    6.6938    5.6797    4.1392    0.1193
  5.812913    7.2085   7.6887   5.9751   6.0879   1.1098   1.0339   999.0000   999.0000   999.0000  999.0000    6.6934    5.6793    4.1389    0.1193
  5.845098    7.2075   7.6880   5.9744   6.0871   1.1097   1.0339   999.0000   999.0000   999.0000  999.0000    6.6927    5.6784    4.1382    0.1193
  5.875061    7.2070   7.6876   5.9740   6.0867   1.1097   1.0339   999.0000   999.0000   999.0000  999.0000    6.6922    5.6780    4.1379    0.1192
  5.903090    7.2064   7.6872   5.9736   6.0863   1.1096   1.0338   999.0000   999.0000   999.0000  999.0000    6.6918    5.6774    4.1375    0.1192
  5.929419    7.2057   7.6867   5.9731   6.0858   1.1096   1.0338   999.0000   999.0000   999.0000  999.0000    6.6913    5.6768    4.1370    0.1192
  5.954243    7.2052   7.6863   5.9726   6.0853   1.1095   1.0338   999.0000   999.0000   999.0000  999.0000    6.6908    5.6763    4.1366    0.1192
  5.977724    7.2048   7.6861   5.9724   6.0851   1.1095   1.0337   999.0000   999.0000   999.0000  999.0000    6.6905    5.6759    4.1363    0.1192
  6.000000    7.2046   7.6859   5.9722   6.0849   1.1095   1.0337   999.0000   999.0000   999.0000  999.0000    6.6904    5.6758    4.1362    0.1192
  6.041393    7.2036   7.6852   5.9715   6.0841   1.1094   1.0337   999.0000   999.0000   999.0000  999.0000    6.6895    5.6748    4.1355    0.1192
  6.079181    7.2017   7.6839   5.9701   6.0827   1.1092   1.0336   999.0000   999.0000   999.0000  999.0000    6.6881    5.6731    4.1341    0.1191
  6.113944    7.2003   7.6828   5.9690   6.0816   1.1091   1.0335   999.0000   999.0000   999.0000  999.0000    6.6869    5.6718    4.1331    0.1191
  6.146128    7.1989   7.6818   5.9680   6.0806   1.1090   1.0334   999.0000   999.0000   999.0000  999.0000    6.6858    5.6705    4.1321    0.1191
  6.176091    7.1977   7.6810   5.9671   6.0797   1.1089   1.0334   999.0000   999.0000   999.0000  999.0000    6.6849    5.6694    4.1313    0.1190
  6.204120    7.1963   7.6800   5.9661   6.0786   1.1088   1.0333   999.0000   999.0000   999.0000  999.0000    6.6838    5.6682    4.1303    0.1190
  6.230449    7.1944   7.6786   5.9647   6.0772   1.1086   1.0332   999.0000   999.0000   999.0000  999.0000    6.6823    5.6664    4.1290    0.1190
  6.255272    7.1932   7.6778   5.9638   6.0763   1.1085   1.0331   999.0000   999.0000   999.0000  999.0000    6.6813    5.6653    4.1281    0.1189
  6.278754    7.1914   7.6765   5.9625   6.0749   1.1084   1.0330   999.0000   999.0000   999.0000  999.0000    6.6799    5.6636    4.1268    0.1189
  6.301030    7.1893   7.6750   5.9610   6.0733   1.1082   1.0329   999.0000   999.0000   999.0000  999.0000    6.6782    5.6617    4.1253    0.1189
  6.322219    7.1873   7.6736   5.9595   6.0718   1.1080   1.0328   999.0000   999.0000   999.0000  999.0000    6.6767    5.6599    4.1240    0.1188
  6.342422    7.1852   7.6721   5.9580   6.0702   1.1078   1.0327   999.0000   999.0000   999.0000  999.0000    6.6750    5.6580    4.1225    0.1188
  6.361728    7.1832   7.6706   5.9565   6.0687   1.1077   1.0326   999.0000   999.0000   999.0000  999.0000    6.6734    5.6561    4.1210    0.1187
  6.380211    7.1812   7.6692   5.9550   6.0672   1.1075   1.0325   999.0000   999.0000   999.0000  999.0000    6.6718    5.6543    4.1196    0.1187
  6.397940    7.1800   7.6684   5.9541   6.0663   1.1074   1.0324   999.0000   999.0000   999.0000  999.0000    6.6709    5.6532    4.1188    0.1187
  6.414973    7.0397   7.4952   5.8193   5.9231   1.1041   1.0308   999.0000   999.0000   999.0000  999.0000    6.5192    5.5489    4.0497    0.1176
  6.431364    7.0901   7.4733   5.8420   5.9035   1.1047   1.0315   999.0000   999.0000   999.0000  999.0000    6.5185    5.5671    4.0618    0.1173
  6.447158    6.6724   6.8453   5.3949   5.3841   1.0950   1.0268   999.0000   999.0000   999.0000  999.0000    5.9992    5.2631    3.8632    0.1133
  6.462398    6.5323   6.3401   5.1588   4.9818   1.0930   1.0293   999.0000   999.0000   999.0000  999.0000    5.6549    5.1494    3.8082    0.1115
  6.477121    6.5690   6.4374   5.2270   5.0794   1.0935   1.0296   999.0000   999.0000   999.0000  999.0000    5.7550    5.1646    3.8220    0.1100
  6.491362    6.5551   6.4168   5.2340   5.0649   1.0913   1.0287   999.0000   999.0000   999.0000  999.0000    5.7230    5.0941    3.7853    0.1085
  6.505150    6.5791   6.4625   5.2626   5.1067   1.0908   1.0285   999.0000   999.0000   999.0000  999.0000    5.7663    5.0912    3.8011    0.1080
  6.518514    6.6477   6.6070   5.3530   5.2281   1.0925   1.0296   999.0000   999.0000   999.0000  999.0000    5.8849    5.1377    3.8314    0.1089
  6.531479    6.7514   6.7264   5.4384   5.3165   1.0942   1.0297   999.0000   999.0000   999.0000  999.0000    5.9711    5.2031    3.8777    0.1095
  6.544068    6.7805   6.7877   5.4865   5.3679   1.0940   1.0292   999.0000   999.0000   999.0000  999.0000    6.0092    5.2062    3.8728    0.1093
  6.556303    6.7738   6.7886   5.4874   5.3815   1.0951   1.0313   999.0000   999.0000   999.0000  999.0000    6.0410    5.2007    3.8481    0.1104
  6.568202    6.8703   6.8285   5.5425   5.3953   1.0952   1.0301   999.0000   999.0000   999.0000  999.0000    6.0416    5.2406    3.8904    0.1102
  6.579783    6.9230   6.9915   5.6169   5.5399   1.0996   1.0334   999.0000   999.0000   999.0000  999.0000    6.2355    5.3398    3.9407    0.1125
  6.591064    6.9765   6.9729   5.6347   5.5163   1.0993   1.0327   999.0000   999.0000   999.0000  999.0000    6.1839    5.3476    3.9679    0.1127
  6.602060    6.9407   7.0920   5.6707   5.6602   1.1068   1.0373   999.0000   999.0000   999.0000  999.0000    6.3812    5.4597    4.0065    0.1159
  6.612784    6.9255   7.0093   5.6422   5.6476   1.1137   1.0423   999.0000   999.0000   999.0000  999.0000    6.3940    5.4938    4.0311    0.1178
  6.623249    6.8640   6.7155   5.5253   5.4343   1.1153   1.0454   999.0000   999.0000   999.0000  999.0000    6.2026    5.4487    4.0004    0.1184
  6.633469    6.8693   6.8743   5.5930   5.5707   1.1181   1.0463   999.0000   999.0000   999.0000  999.0000    6.3608    5.4933    4.0284    0.1195
  6.643453    6.8198   6.7439   5.5366   5.4859   1.1217   1.0501   999.0000   999.0000   999.0000  999.0000    6.3090    5.4516    4.0039    0.1196
  6.653213    6.7697   6.6109   5.4722   5.3959   1.1246   1.0532   999.0000   999.0000   999.0000  999.0000    6.2333    5.4083    3.9713    0.1197
  6.662758    6.6905   6.5025   5.4168   5.3390   1.1279   1.0560   999.0000   999.0000   999.0000  999.0000    6.1619    5.3671    3.9392    0.1203
  6.672098    6.6266   6.4375   5.3849   5.3141   1.1314   1.0587   999.0000   999.0000   999.0000  999.0000    6.1147    5.3355    3.9170    0.1213
  6.681241    6.6442   6.4960   5.4243   5.3504   1.1307   1.0576   999.0000   999.0000   999.0000  999.0000    6.1734    5.3637    3.9371    0.1212
  6.690196    6.6788   6.6001   5.4898   5.4195   1.1295   1.0556   999.0000   999.0000   999.0000  999.0000    6.2601    5.4066    3.9663    0.1212
  6.698970    6.6226   6.5446   5.5050   5.4195   1.1346   1.0583   999.0000   999.0000   999.0000  999.0000    6.3397    5.4517    3.9919    0.1227
  6.720160    6.6271   6.3905   5.5148   5.3337   1.1392   1.0611   999.0000   999.0000   999.0000  999.0000    6.4557    5.5288    4.0408    0.1230
  6.740363    6.7874   6.5392   5.5869   5.4028   1.1313   1.0539   999.0000   999.0000   999.0000  999.0000    6.4746    5.5402    4.0547    0.1201
  6.759668    6.8483   6.6314   5.6108   5.4456   1.1275   1.0510   999.0000   999.0000   999.0000  999.0000    6.4621    5.5391    4.0528    0.1191
  6.778151    6.8932   6.8760   5.6698   5.6037   1.1242   1.0480   999.0000   999.0000   999.0000  999.0000    6.4925    5.5603    4.0634    0.1195
  6.795880    6.9464   7.0817   5.7269   5.7265   1.1215   1.0455   999.0000   999.0000   999.0000  999.0000    6.5245    5.5816    4.0783    0.1197
  6.812913    7.0242   7.2814   5.8001   5.8341   1.1193   1.0430   999.0000   999.0000   999.0000  999.0000    6.5741    5.6147    4.1041    0.1200
  6.829304    7.1073   7.4390   5.8784   5.9128   1.1187   1.0414   999.0000   999.0000   999.0000  999.0000    6.6382    5.6571    4.1381    0.1206
  6.845098    7.1125   7.4745   5.8993   5.9434   1.1201   1.0419   999.0000   999.0000   999.0000  999.0000    6.6613    5.6748    4.1520    0.1213
  6.860338    7.1235   7.5038   5.9163   5.9674   1.1206   1.0419   999.0000   999.0000   999.0000  999.0000    6.6762    5.6876    4.1611    0.1217
  6.875061    7.1222   7.4958   5.9158   5.9633   1.1212   1.0423   999.0000   999.0000   999.0000  999.0000    6.6768    5.6901    4.1635    0.1218
  6.903090    7.1154   7.4660   5.9122   5.9469   1.1227   1.0433   999.0000   999.0000   999.0000  999.0000    6.6763    5.6947    4.1687    0.1220
  6.929419    7.1166   7.4493   5.9144   5.9396   1.1234   1.0437   999.0000   999.0000   999.0000  999.0000    6.6769    5.7002    4.1735    0.1219
  6.954243    7.1224   7.4445   5.9197   5.9403   1.1243   1.0442   999.0000   999.0000   999.0000  999.0000    6.6826    5.7086    4.1794    0.1221
  6.977724    7.1283   7.4365   5.9253   5.9394   1.1252   1.0447   999.0000   999.0000   999.0000  999.0000    6.6893    5.7177    4.1852    0.1222
  7.000000    7.1439   7.4492   5.9358   5.9520   1.1257   1.0449   999.0000   999.0000   999.0000  999.0000    6.7003    5.7261    4.1901    0.1224
  7.021189    7.1555   7.4512   5.9434   5.9606   1.1262   1.0451   999.0000   999.0000   999.0000  999.0000    6.7107    5.7329    4.1944    0.1226
  7.041393    7.1700   7.4577   5.9534   5.9760   1.1260   1.0448   999.0000   999.0000   999.0000  999.0000    6.7219    5.7385    4.1978    0.1226
  7.060698    7.1758   7.4585   5.9579   5.9816   1.1262   1.0449   999.0000   999.0000   999.0000  999.0000    6.7271    5.7428    4.2018    0.1227
  7.079181    7.1740   7.4392   5.9577   5.9766   1.1269   1.0454   999.0000   999.0000   999.0000  999.0000    6.7293    5.7471    4.2060    0.1228
  7.096910    7.1740   7.4190   5.9590   5.9729   1.1277   1.0458   999.0000   999.0000   999.0000  999.0000    6.7317    5.7547    4.2102    0.1228
  7.113944    7.1798   7.4054   5.9640   5.9748   1.1281   1.0461   999.0000   999.0000   999.0000  999.0000    6.7371    5.7639    4.2144    0.1227
  7.130334    7.1912   7.4089   5.9726   5.9847   1.1284   1.0461   999.0000   999.0000   999.0000  999.0000    6.7461    5.7730    4.2192    0.1227
  7.146128    7.1958   7.4051   5.9766   5.9873   1.1289   1.0464   999.0000   999.0000   999.0000  999.0000    6.7517    5.7781    4.2231    0.1228
  7.161368    7.1917   7.3837   5.9745   5.9798   1.1298   1.0469   999.0000   999.0000   999.0000  999.0000    6.7539    5.7799    4.2263    0.1230
  7.176091    7.1904   7.3647   5.9732   5.9730   1.1308   1.0476   999.0000   999.0000   999.0000  999.0000    6.7582    5.7822    4.2293    0.1232
  7.204120    7.1854   7.3224   5.9692   5.9573   1.1329   1.0489   999.0000   999.0000   999.0000  999.0000    6.7641    5.7865    4.2351    0.1237
  7.230449    7.1954   7.3166   5.9764   5.9601   1.1343   1.0497   999.0000   999.0000   999.0000  999.0000    6.7728    5.8002    4.2427    0.1238
  7.255272    7.2092   7.3310   5.9870   5.9709   1.1353   1.0503   999.0000   999.0000   999.0000  999.0000    6.7814    5.8148    4.2516    0.1239
  7.278754    7.2144   7.3266   5.9911   5.9714   1.1363   1.0510   999.0000   999.0000   999.0000  999.0000    6.7859    5.8216    4.2576    0.1242
  7.301030    7.2211   7.3330   5.9964   5.9767   1.1368   1.0514   999.0000   999.0000   999.0000  999.0000    6.7925    5.8268    4.2634    0.1244
  7.322219    7.2271   7.3285   6.0021   5.9762   1.1380   1.0521   999.0000   999.0000   999.0000  999.0000    6.8016    5.8351    4.2706    0.1246
  7.342422    7.2395   7.3252   6.0121   5.9775   1.1395   1.0529   999.0000   999.0000   999.0000  999.0000    6.8158    5.8495    4.2791    0.1249
  7.361728    7.2406   7.3158   6.0136   5.9742   1.1411   1.0541   999.0000   999.0000   999.0000  999.0000    6.8225    5.8612    4.2845    0.1253
  7.380211    7.1035   7.1151   5.9101   5.8896   1.1490   1.0609   999.0000   999.0000   999.0000  999.0000    6.7800    5.8606    4.2651    0.1276
  7.397940    6.9347   6.8525   5.7918   5.7633   1.1587   1.0693   999.0000   999.0000   999.0000  999.0000    6.7320    5.8534    4.2448    0.1302
  7.414973    6.8269   6.6788   5.7170   5.6815   1.1657   1.0752   999.0000   999.0000   999.0000  999.0000    6.7056    5.8525    4.2349    0.1321
  7.431364    6.7799   6.5952   5.6850   5.6440   1.1696   1.0783   999.0000   999.0000   999.0000  999.0000    6.6997    5.8584    4.2348    0.1331
  7.447158    6.7974   6.6106   5.6979   5.6541   1.1699   1.0784   999.0000   999.0000   999.0000  999.0000    6.7136    5.8691    4.2439    0.1332
  7.462398    6.8563   6.6911   5.7388   5.6965   1.1679   1.0764   999.0000   999.0000   999.0000  999.0000    6.7368    5.8814    4.2583    0.1327
  7.477121    6.8851   6.7188   5.7666   5.7039   1.1676   1.0760   999.0000   999.0000   999.0000  999.0000    6.7551    5.8925    4.2728    0.1324
  7.491362    6.9025   6.7303   5.7873   5.7028   1.1672   1.0757   999.0000   999.0000   999.0000  999.0000    6.7652    5.8991    4.2856    0.1320
  7.505150    6.9220   6.7465   5.8089   5.7046   1.1667   1.0752   999.0000   999.0000   999.0000  999.0000    6.7756    5.9059    4.2984    0.1316
  7.518514    6.9494   6.7757   5.8344   5.7129   1.1663   1.0747   999.0000   999.0000   999.0000  999.0000    6.7898    5.9136    4.3111    0.1313
  7.531479    6.9803   6.8120   5.8619   5.7258   1.1658   1.0740   999.0000   999.0000   999.0000  999.0000    6.8067    5.9226    4.3246    0.1310
  7.544068    7.0146   6.8583   5.8925   5.7451   1.1650   1.0731   999.0000   999.0000   999.0000  999.0000    6.8242    5.9334    4.3391    0.1306
  7.556303    7.0486   6.9122   5.9231   5.7695   1.1639   1.0720   999.0000   999.0000   999.0000  999.0000    6.8399    5.9439    4.3534    0.1301
  7.568202    7.0513   6.9186   5.9305   5.7732   1.1638   1.0717   999.0000   999.0000   999.0000  999.0000    6.8433    5.9490    4.3622    0.1298
  7.579783    7.0196   6.8703   5.9148   5.7487   1.1652   1.0729   999.0000   999.0000   999.0000  999.0000    6.8350    5.9495    4.3661    0.1299
  7.591064    6.9929   6.8255   5.9019   5.7258   1.1666   1.0741   999.0000   999.0000   999.0000  999.0000    6.8279    5.9512    4.3712    0.1300
  7.602060    6.9800   6.7986   5.8963   5.7121   1.1679   1.0752   999.0000   999.0000   999.0000  999.0000    6.8271    5.9540    4.3779    0.1304
  7.628389    6.9868   6.7949   5.9095   5.7185   1.1690   1.0760   999.0000   999.0000   999.0000  999.0000    6.8340    5.9714    4.4020    0.1306
  7.653213    7.0503   6.8807   5.9583   5.7793   1.1671   1.0740   999.0000   999.0000   999.0000  999.0000    6.8518    5.9965    4.4345    0.1303
  7.676693    7.1544   7.0473   6.0310   5.8875   1.1616   1.0692   999.0000   999.0000   999.0000  999.0000    6.8699    6.0170    4.4682    0.1291
  7.698970    7.1806   7.1095   6.0577   5.9363   1.1594   1.0672   999.0000   999.0000   999.0000  999.0000    6.8651    6.0285    4.4986    0.1282
  7.728354    7.1158   7.0331   6.0379   5.9150   1.1606   1.0680   999.0000   999.0000   999.0000  999.0000    6.8408    6.0448    4.5391    0.1275
  7.755875    7.0676   6.9836   6.0247   5.9030   1.1616   1.0685   999.0000   999.0000   999.0000  999.0000    6.8214    6.0505    4.5753    0.1269
  7.778151    7.0282   6.9507   6.0129   5.8977   1.1617   1.0681   999.0000   999.0000   999.0000  999.0000    6.8025    6.0548    4.5998    0.1260
  7.845098    6.9869   6.8953   6.0252   5.9090   1.1674   1.0718   999.0000   999.0000   999.0000  999.0000    6.7957    6.1059    4.6923    0.1266
  7.903090    7.0279   6.8865   6.0787   5.9478   1.1752   1.0765   999.0000   999.0000   999.0000  999.0000    6.8665    6.1964    4.7894    0.1273
  7.954243    7.1827   7.0258   6.1883   6.0623   1.1837   1.0807   999.0000   999.0000   999.0000  999.0000    7.0171    6.3353    4.9031    0.1284
  8.000000    7.3823   7.1741   6.3229   6.1677   1.1946   1.0873   999.0000   999.0000   999.0000  999.0000    7.1871    6.4919    4.9941    0.1309
  8.041392    7.5750   7.3285   6.4407   6.2715   1.2058   1.0939   999.0000   999.0000   999.0000  999.0000    7.3636    6.6052    5.0701    0.1341
  8.079182    7.6546   7.3766   6.4883   6.3071   1.2135   1.0991   999.0000   999.0000   999.0000  999.0000    7.4232    6.6522    5.1067    0.1367
  8.146128    7.8994   7.5953   6.6382   6.4483   1.2280   1.1085   999.0000   999.0000   999.0000  999.0000    7.5424    6.7620    5.1973    0.1443
  8.204120    8.1966   7.8907   6.8369   6.6533   1.2443   1.1178   999.0000   999.0000   999.0000  999.0000    7.7716    6.9582    5.3416    0.1527
  8.255273    8.5960   8.2649   7.1220   6.9402   1.2615   1.1270   999.0000   999.0000   999.0000  999.0000    8.1133    7.3168    5.5445    0.1589
  8.301030    8.9875   8.6369   7.3821   7.2010   1.2834   1.1387   999.0000   999.0000   999.0000  999.0000    8.4669    7.6723    5.7159    0.1648
  8.352182    9.4790   9.1223   7.6667   7.4715   1.3140   1.1550   999.0000   999.0000   999.0000  999.0000    8.8703    8.0030    5.8505    0.1741
  8.397940    9.8537   9.5136   7.8347   7.6369   1.3470   1.1726   999.0000   999.0000   999.0000  999.0000    9.1614    8.1956    5.8734    0.1840
  8.439333   10.1544   9.8382   7.9436   7.7423   1.3789   1.1911   999.0000   999.0000   999.0000  999.0000    9.3725    8.3032    5.8540    0.1946
  8.477121   10.3649  10.0255   7.9909   7.7876   1.4090   1.2115   999.0000   999.0000   999.0000  999.0000    9.4912    8.3635    5.7911    0.2047
  8.544068   10.4970  10.0342   7.9171   7.7035   1.4597   1.2550   999.0000   999.0000   999.0000  999.0000    9.4871    8.3400    5.6107    0.2235
  8.602060   10.2872   9.6938   7.6626   7.4667   1.4990   1.2906   999.0000   999.0000   999.0000  999.0000    9.2781    8.1941    5.3714    0.2359
  8.653213    9.9157   9.2011   7.3413   7.1701   1.5349   1.3238   999.0000   999.0000   999.0000  999.0000    9.0050    8.0274    5.1428    0.2470
  8.698970    9.3802   8.5970   6.9512   6.8298   1.5634   1.3499   999.0000   999.0000   999.0000  999.0000    8.6497    7.8133    4.9289    0.2545
  8.740363    8.6005   7.7909   6.4267   6.3965   1.5821   1.3661   999.0000   999.0000   999.0000  999.0000    8.1501    7.4991    4.6734    0.2552
  8.778152    8.0285   7.1301   6.0478   6.0401   1.6049   1.3883   999.0000   999.0000   999.0000  999.0000    7.7565    7.2984    4.4921    0.2629
  8.812913    7.5350   6.4894   5.7205   5.7098   1.6316   1.4173   999.0000   999.0000   999.0000  999.0000    7.4085    7.1729    4.3241    0.2748
  8.845098    7.0928   5.9694   5.4069   5.3975   1.6490   1.4379   999.0000   999.0000   999.0000  999.0000    7.0725    7.0321    4.1796    0.2793
  8.875061    6.4848   5.3565   4.9968   5.0198   1.6579   1.4473   999.0000   999.0000   999.0000  999.0000    6.7555    6.8388    4.0507    0.2748
  8.903090    5.6329   4.4208   4.5056   4.4958   1.6525   1.4434   999.0000   999.0000   999.0000  999.0000    6.3880    6.6132    3.8896    0.2646
  8.929419    5.1229   3.8329   4.2160   4.1620   1.6508   1.4409   999.0000   999.0000   999.0000  999.0000    6.1422    6.5011    3.7931    0.2583
  8.954243    4.5199   3.0728   3.8899   3.7683   1.6532   1.4457   999.0000   999.0000   999.0000  999.0000    5.7934    6.3908    3.6174    0.2551
  9.000000    3.4047   1.7032   3.2908   3.0112   1.6752   1.4760   999.0000   999.0000   999.0000  999.0000    5.1159    6.1394    3.2655    0.2581
  9.041392    2.5844   0.6280   2.8752   2.3904   1.7022   1.5101   999.0000   999.0000   999.0000  999.0000    4.6182    5.9121    3.0062    0.2647
  9.079182    1.8866  -0.2087   2.5131   1.9109   1.7347   1.5445   999.0000   999.0000   999.0000  999.0000    4.2342    5.7552    2.8091    0.2677
  9.113943    1.3847  -0.8709   2.2761   1.5116   1.7700   1.5800   999.0000   999.0000   999.0000  999.0000    3.9878    5.6704    2.6645    0.2701
  9.146128    1.0871  -1.2745   2.1626   1.2339   1.7995   1.6102   999.0000   999.0000   999.0000  999.0000    3.9168    5.6804    2.5973    0.2711
  9.176091    0.7236  -1.7520   2.0065   0.9219   1.8359   1.6467   999.0000   999.0000   999.0000  999.0000    3.8210    5.6696    2.5193    0.2740
  9.204120    0.2923  -2.3741   1.7989   0.5559   1.8794   1.6868   999.0000   999.0000   999.0000  999.0000    3.7176    5.6255    2.4174    0.2773
  9.230449   -0.2182  -3.0311   1.5520   0.1638   1.9273   1.7337   999.0000   999.0000   999.0000  999.0000    3.5864    5.5016    2.2908    0.2810
  9.255273   -0.5879  -3.5275   1.3690  -0.1408   1.9694   1.7731   999.0000   999.0000   999.0000  999.0000    3.5089    5.4079    2.2095    0.2839
  9.278753   -0.6640  -3.6146   1.3182  -0.2090   1.9741   1.7802   999.0000   999.0000   999.0000  999.0000    3.3919    5.3747    2.1052    0.2827
  9.301030   -0.5595  -3.4183   1.3676  -0.1007   1.9535   1.7659   999.0000   999.0000   999.0000  999.0000    3.3423    5.4264    2.0627    0.2812
  9.322219   -0.5168  -3.3686   1.3850  -0.0725   1.9450   1.7577   999.0000   999.0000   999.0000  999.0000    3.2967    5.4435    2.0353    0.2802
  9.342422   -0.7620  -3.6477   1.2808  -0.2364   1.9722   1.7800   999.0000   999.0000   999.0000  999.0000    3.2324    5.4137    2.0221    0.2815
  9.361728   -1.0836  -4.0006   1.1473  -0.4435   2.0090   1.8115   999.0000   999.0000   999.0000  999.0000    3.1419    5.3586    1.9951    0.2835
  9.380211   -1.0772  -3.9137   1.1624  -0.4042   1.9947   1.8002   999.0000   999.0000   999.0000  999.0000    3.0612    5.3450    1.9705    0.2818
  9.397940   -1.2271  -4.0300   1.1035  -0.4759   2.0024   1.8076   999.0000   999.0000   999.0000  999.0000    2.9712    5.2922    1.9317    0.2813
  9.414973   -1.5433  -4.3332   0.9699  -0.6569   2.0301   1.8341   999.0000   999.0000   999.0000  999.0000    2.8685    5.1981    1.8840    0.2820
  9.447158   -1.8556  -4.6520   0.8434  -0.8348   2.0631   1.8642   999.0000   999.0000   999.0000  999.0000    2.7871    5.1049    1.8658    0.2838
  9.477121   -2.0903  -4.9074   0.7449  -0.9741   2.0951   1.8926   999.0000   999.0000   999.0000  999.0000    2.7557    5.0706    1.8776    0.2866
  9.511884   -2.4383  -5.2901   0.5978  -1.1956   2.1411   1.9344   999.0000   999.0000   999.0000  999.0000    2.6904    5.0488    1.8681    0.2894
  9.544068   -2.6987  -5.5391   0.4819  -1.3419   2.1704   1.9596   999.0000   999.0000   999.0000  999.0000    2.6304    5.0534    1.8464    0.2898
  9.574031   -3.1119  -5.9853   0.3074  -1.5931   2.2344   2.0119   999.0000   999.0000   999.0000  999.0000    2.6184    5.0089    1.8462    0.2931
  9.602060   -3.3830  -6.2265   0.2079  -1.7371   2.2725   2.0406   999.0000   999.0000   999.0000  999.0000    2.6037    4.9489    1.8709    0.2934
  9.628389   -3.4778  -6.3146   0.1826  -1.7928   2.2889   2.0526   999.0000   999.0000   999.0000  999.0000    2.6283    4.9477    1.8882    0.2937
  9.653213   -3.6395  -6.4858   0.1161  -1.8999   2.3093   2.0702   999.0000   999.0000   999.0000  999.0000    2.6264    4.9045    1.8811    0.2939
  9.676694   -3.6698  -6.4712   0.1123  -1.9104   2.3097   2.0724   999.0000   999.0000   999.0000  999.0000    2.6280    4.8968    1.8676    0.2929
  9.698970   -3.6949  -6.4952   0.1049  -1.9222   2.3147   2.0761   999.0000   999.0000   999.0000  999.0000    2.6458    4.8971    1.8713    0.2934
  9.720160   -3.8726  -6.6975   0.0263  -2.0320   2.3447   2.1002   999.0000   999.0000   999.0000  999.0000    2.5987    4.8474    1.8574    0.2952
  9.740363   -3.9649  -6.8010  -0.0114  -2.0921   2.3600   2.1125   999.0000   999.0000   999.0000  999.0000    2.6123    4.8208    1.8596    0.2956
  9.759667   -3.9725  -6.7959  -0.0126  -2.0996   2.3567   2.1092   999.0000   999.0000   999.0000  999.0000    2.6015    4.8335    1.8479    0.2946
  9.778152   -3.9296  -6.6804   0.0130  -2.0633   2.3354   2.0941   999.0000   999.0000   999.0000  999.0000    2.5584    4.8668    1.8122    0.2925
  9.795880   -4.0136  -6.7523  -0.0186  -2.1102   2.3476   2.1048   999.0000   999.0000   999.0000  999.0000    2.5689    4.8430    1.8121    0.2926
  9.812913   -4.0856  -6.8097  -0.0434  -2.1480   2.3599   2.1157   999.0000   999.0000   999.0000  999.0000    2.5922    4.8176    1.8160    0.2926
  9.829304   -4.1491  -6.8527  -0.0639  -2.1783   2.3712   2.1257   999.0000   999.0000   999.0000  999.0000    2.6175    4.7928    1.8227    0.2925
  9.845098   -4.2091  -6.8917  -0.0833  -2.2061   2.3821   2.1356   999.0000   999.0000   999.0000  999.0000    2.6366    4.7672    1.8250    0.2924
  9.860338   -4.2958  -6.9611  -0.1138  -2.2490   2.3985   2.1497   999.0000   999.0000   999.0000  999.0000    2.6609    4.7333    1.8367    0.2926
  9.875061   -4.3889  -7.0338  -0.1463  -2.2937   2.4157   2.1642   999.0000   999.0000   999.0000  999.0000    2.6831    4.6998    1.8458    0.2929
  9.889301   -4.4816  -7.1093  -0.1794  -2.3394   2.4332   2.1788   999.0000   999.0000   999.0000  999.0000    2.6955    4.6668    1.8563    0.2933
  9.903090   -4.5814  -7.1964  -0.2171  -2.3904   2.4517   2.1940   999.0000   999.0000   999.0000  999.0000    2.6965    4.6326    1.8631    0.2939
  9.916454   -4.6841  -7.2843  -0.2570  -2.4428   2.4700   2.2085   999.0000   999.0000   999.0000  999.0000    2.6884    4.6009    1.8691    0.2946
  9.929419   -4.7842  -7.3621  -0.2959  -2.4905   2.4860   2.2208   999.0000   999.0000   999.0000  999.0000    2.6764    4.5863    1.8776    0.2951
  9.942008   -4.8926  -7.4473  -0.3391  -2.5415   2.5020   2.2330   999.0000   999.0000   999.0000  999.0000    2.6587    4.5727    1.8839    0.2957
  9.954243   -5.0038  -7.5361  -0.3834  -2.5939   2.5182   2.2453   999.0000   999.0000   999.0000  999.0000    2.6434    4.5594    1.8908    0.2963
  9.966142   -5.1183  -7.6274  -0.4285  -2.6463   2.5346   2.2579   999.0000   999.0000   999.0000  999.0000    2.6306    4.5478    1.8995    0.2970
  9.977724   -5.2535  -7.7487  -0.4856  -2.7093   2.5569   2.2746   999.0000   999.0000   999.0000  999.0000    2.6236    4.5330    1.9094    0.2981
  9.989004   -5.3687  -7.8576  -0.5343  -2.7596   2.5746   2.2874   999.0000   999.0000   999.0000  999.0000    2.6378    4.5262    1.9291    0.2990
 10.000000   -5.4692  -7.9378  -0.5758  -2.8014   2.5878   2.2970   999.0000   999.0000   999.0000  999.0000    2.6377    4.5250    1.9378    0.2995
 10.010724   -5.5550  -8.0090  -0.6111  -2.8378   2.5996   2.3057   999.0000   999.0000   999.0000  999.0000    2.6379    4.5198    1.9434    0.2999
 10.021190   -5.6309  -8.0732  -0.6432  -2.8703   2.6095   2.3129   999.0000   999.0000   999.0000  999.0000    2.6376    4.5178    1.9465    0.3003
 10.031408   -5.7019  -8.1316  -0.6732  -2.8998   2.6187   2.3194   999.0000   999.0000   999.0000  999.0000    2.6367    4.5173    1.9487    0.3005
 10.041392   -5.7666  -8.1858  -0.7010  -2.9260   2.6267   2.3250   999.0000   999.0000   999.0000  999.0000    2.6355    4.5176    1.9499    0.3007
 10.051152   -5.8149  -8.2143  -0.7196  -2.9423   2.6281   2.3254   999.0000   999.0000   999.0000  999.0000    2.6281    4.5241    1.9467    0.3003
 10.060698   -5.8793  -8.2600  -0.7453  -2.9680   2.6374   2.3325   999.0000   999.0000   999.0000  999.0000    2.6222    4.5228    1.9399    0.3005
 10.070038   -5.9266  -8.2956  -0.7630  -2.9875   2.6456   2.3384   999.0000   999.0000   999.0000  999.0000    2.6219    4.5156    1.9347    0.3005
 10.079182   -5.9683  -8.3275  -0.7779  -3.0053   2.6534   2.3442   999.0000   999.0000   999.0000  999.0000    2.6216    4.5044    1.9268    0.3006
 10.088136   -6.0076  -8.3572  -0.7912  -3.0221   2.6617   2.3503   999.0000   999.0000   999.0000  999.0000    2.6226    4.4919    1.9199    0.3007
 10.096910   -6.0461  -8.3857  -0.8032  -3.0386   2.6704   2.3568   999.0000   999.0000   999.0000  999.0000    2.6276    4.4791    1.9143    0.3007
 10.105510   -6.0818  -8.4101  -0.8138  -3.0534   2.6790   2.3632   999.0000   999.0000   999.0000  999.0000    2.6335    4.4655    1.9092    0.3008
 10.113943   -6.1164  -8.4344  -0.8230  -3.0678   2.6878   2.3700   999.0000   999.0000   999.0000  999.0000    2.6402    4.4492    1.9035    0.3009
 10.122216   -6.1528  -8.4600  -0.8321  -3.0838   2.6977   2.3777   999.0000   999.0000   999.0000  999.0000    2.6515    4.4308    1.8981    0.3011
 10.130334   -6.1986  -8.5038  -0.8471  -3.1054   2.7140   2.3903   999.0000   999.0000   999.0000  999.0000    2.6705    4.4035    1.8959    0.3019
 10.138303   -6.2189  -8.5190  -0.8508  -3.1142   2.7196   2.3942   999.0000   999.0000   999.0000  999.0000    2.6806    4.3814    1.8937    0.3018
 10.146128   -6.2519  -8.5419  -0.8598  -3.1281   2.7280   2.4007   999.0000   999.0000   999.0000  999.0000    2.6849    4.3565    1.8881    0.3019
