#                                                     Mon Jul 29 20:39:42 2019
#          I------------------------------------------------------------------------------------------------------------------------I
#          I                                                                                                                        I
#          I      BC_GALAXEV  ---  MODEL PARAMETERS:   Generic file name for this model = cb2018_z004_chab_hr_pmiles_ssp            I
#          I                                                                                                                        I
#          I      TRACKS: Padova 2013 + Marigo 2013, X=0.740, Y=0.256, Z=0.004                                                      I
#          I                                                                                                                        I
#          I      S.F.R.: SSP = Zero Length Burst at t = 0                                                                          I
#          I                                                                                                                        I
#          I                                                                                                                        I
#          I      I.M.F.: Lognormal + power law                                                                                     I
#          I                                                                      mass in      number                               I
#          I                                                  from m     to m     segment    of stars      c                        I
#          I                                        lognormal   0.10     1.00      0.4057      1.3076                               I
#          I                                          x=1.3     1.00   100.00      0.5943      0.1827                               I
#          I                                                                                                                        I
#          I                                                           totals      1.0000      1.4903  0.6710 Mo/star               I
#          I                                                                                                                        I
#          I                                                                                                                        I
#          I                                                                                                                        I
#          I                                                                                                                        I
#          I      LISTED: Rest frame properties                                                                                     I
#          I                                                                                                                        I
#          I                                                                                                                        I
#          I                              (C) 1995-2017 G. Bruzual A. & S. Charlot - All Rights Reserved                            I
#          I------------------------------------------------------------------------------------------------------------------------I
#
#    (1)        (2)      (3)      (4)      (5)      (6)      (7)       (8)        (9)        (10)      (11)      (12)      (13)      (14)      (15)
#
# Index_No.    WO-1:    WO-2:    WO-3:    WO-4:    GC-1:    4000A    DTT-Ca1    DTT-Ca2    DTT-Ca3   DTT-MgI     DM-04     DM-04     DM-04       BH:
# log-age    HdeltaA  HgammaA  HdeltaF  HgammaF  D(4000)    B4_VN   CaII8498   CaII8542   CaII8662   MgI8807   H8_3889   H9_3835  H10_3798     BH-HK
#   (yr)        (A)      (A)      (A)      (A)       .        .         (A)        (A)        (A)       (A)       (A)       (A)       (A)        (A)
  4.000000    4.4558   4.8553   3.2835   3.7177   0.9587   0.9789   999.0000   999.0000   999.0000  999.0000    3.6266    2.1297    0.9514    0.0626
  4.301030    4.4558   4.8553   3.2835   3.7177   0.9587   0.9789   999.0000   999.0000   999.0000  999.0000    3.6266    2.1297    0.9514    0.0626
  4.477121    4.4558   4.8553   3.2835   3.7177   0.9587   0.9789   999.0000   999.0000   999.0000  999.0000    3.6266    2.1297    0.9514    0.0626
  4.602060    4.4558   4.8553   3.2835   3.7177   0.9587   0.9789   999.0000   999.0000   999.0000  999.0000    3.6266    2.1297    0.9514    0.0626
  4.698970    4.4558   4.8553   3.2835   3.7177   0.9587   0.9789   999.0000   999.0000   999.0000  999.0000    3.6266    2.1297    0.9514    0.0626
  4.778151    4.4558   4.8553   3.2835   3.7177   0.9587   0.9789   999.0000   999.0000   999.0000  999.0000    3.6266    2.1297    0.9514    0.0626
  4.845098    4.4507   4.8502   3.2798   3.7141   0.9587   0.9789   999.0000   999.0000   999.0000  999.0000    3.6253    2.1269    0.9501    0.0625
  4.903090    4.4108   4.8257   3.2488   3.6985   0.9579   0.9785   999.0000   999.0000   999.0000  999.0000    3.6074    2.1080    0.9414    0.0621
  4.954243    4.4788   4.8726   3.2993   3.7293   0.9590   0.9790   999.0000   999.0000   999.0000  999.0000    3.6404    2.1384    0.9519    0.0629
  5.000000    4.5983   4.9555   3.3883   3.7837   0.9608   0.9796   999.0000   999.0000   999.0000  999.0000    3.6988    2.1925    0.9713    0.0645
  5.060698    4.6038   4.9580   3.3925   3.7854   0.9608   0.9796   999.0000   999.0000   999.0000  999.0000    3.7006    2.1928    0.9698    0.0646
  5.113944    4.6000   4.9485   3.3914   3.7795   0.9610   0.9798   999.0000   999.0000   999.0000  999.0000    3.7053    2.1875    0.9668    0.0645
  5.161368    4.5960   4.9455   3.3884   3.7775   0.9609   0.9797   999.0000   999.0000   999.0000  999.0000    3.7029    2.1851    0.9654    0.0645
  5.204120    4.5950   4.9447   3.3876   3.7770   0.9609   0.9797   999.0000   999.0000   999.0000  999.0000    3.7023    2.1844    0.9650    0.0645
  5.243038    4.5926   4.9430   3.3859   3.7760   0.9608   0.9797   999.0000   999.0000   999.0000  999.0000    3.7009    2.1829    0.9641    0.0644
  5.255272    4.5912   4.9419   3.3853   3.7757   0.9609   0.9797   999.0000   999.0000   999.0000  999.0000    3.7019    2.1815    0.9635    0.0644
  5.278754    4.5886   4.9393   3.3850   3.7758   0.9611   0.9799   999.0000   999.0000   999.0000  999.0000    3.7064    2.1778    0.9617    0.0644
  5.301030    4.5858   4.9372   3.3831   3.7746   0.9610   0.9799   999.0000   999.0000   999.0000  999.0000    3.7055    2.1760    0.9607    0.0643
  5.397940    4.5860   4.9361   3.3830   3.7740   0.9609   0.9798   999.0000   999.0000   999.0000  999.0000    3.7032    2.1729    0.9572    0.0643
  5.477121    4.5783   4.9383   3.3805   3.7820   0.9613   0.9803   999.0000   999.0000   999.0000  999.0000    3.7168    2.1638    0.9527    0.0642
  5.544068    4.5680   4.9307   3.3727   3.7771   0.9611   0.9802   999.0000   999.0000   999.0000  999.0000    3.7104    2.1576    0.9492    0.0641
  5.602060    4.5595   4.9247   3.3662   3.7733   0.9609   0.9801   999.0000   999.0000   999.0000  999.0000    3.7053    2.1526    0.9463    0.0640
  5.653213    4.5520   4.9192   3.3606   3.7698   0.9607   0.9800   999.0000   999.0000   999.0000  999.0000    3.7008    2.1483    0.9439    0.0639
  5.698970    4.5429   4.9128   3.3537   3.7658   0.9605   0.9799   999.0000   999.0000   999.0000  999.0000    3.6955    2.1431    0.9411    0.0637
  5.740363    4.5378   4.9084   3.3498   3.7628   0.9603   0.9798   999.0000   999.0000   999.0000  999.0000    3.6919    2.1397    0.9390    0.0637
  5.778151    4.5288   4.9020   3.3430   3.7587   0.9601   0.9798   999.0000   999.0000   999.0000  999.0000    3.6865    2.1345    0.9362    0.0636
  5.812913    4.5186   4.8952   3.3354   3.7544   0.9599   0.9797   999.0000   999.0000   999.0000  999.0000    3.6807    2.1287    0.9330    0.0634
  5.845098    4.5123   4.8905   3.3306   3.7514   0.9597   0.9796   999.0000   999.0000   999.0000  999.0000    3.6768    2.1250    0.9309    0.0634
  5.875061    4.6745   4.9991   3.4508   3.8206   0.9619   0.9802   999.0000   999.0000   999.0000  999.0000    3.7500    2.1984    0.9563    0.0655
  5.903090    4.6840   5.0048   3.4577   3.8240   0.9620   0.9802   999.0000   999.0000   999.0000  999.0000    3.7530    2.2019    0.9567    0.0656
  5.929419    4.6734   4.9972   3.4496   3.8191   0.9618   0.9801   999.0000   999.0000   999.0000  999.0000    3.7469    2.1961    0.9537    0.0655
  5.954243    4.6624   4.9891   3.4412   3.8138   0.9615   0.9800   999.0000   999.0000   999.0000  999.0000    3.7402    2.1899    0.9504    0.0653
  5.977724    4.6553   4.9837   3.4358   3.8102   0.9613   0.9800   999.0000   999.0000   999.0000  999.0000    3.7356    2.1856    0.9479    0.0652
  6.000000    4.6412   4.9734   3.4251   3.8034   0.9610   0.9798   999.0000   999.0000   999.0000  999.0000    3.7273    2.1780    0.9440    0.0650
  6.041393    4.6250   4.9609   3.4126   3.7952   0.9606   0.9796   999.0000   999.0000   999.0000  999.0000    3.7162    2.1673    0.9372    0.0648
  6.079181    4.7672   5.0559   3.5175   3.8557   0.9623   0.9801   999.0000   999.0000   999.0000  999.0000    3.7780    2.2295    0.9567    0.0667
  6.113944    4.8681   5.1241   3.5920   3.8994   0.9636   0.9804   999.0000   999.0000   999.0000  999.0000    3.8224    2.2738    0.9706    0.0680
  6.146128    5.0988   5.2824   3.7628   4.0016   0.9667   0.9814   999.0000   999.0000   999.0000  999.0000    3.9279    2.3776    1.0052    0.0710
  6.176091    5.5780   5.6196   4.1188   4.2212   0.9737   0.9836   999.0000   999.0000   999.0000  999.0000    4.1562    2.5998    1.0832    0.0773
  6.204120    5.7426   5.7349   4.2413   4.2966   0.9760   0.9842   999.0000   999.0000   999.0000  999.0000    4.2332    2.6741    1.1073    0.0795
  6.230449    5.7343   5.7262   4.2348   4.2913   0.9754   0.9839   999.0000   999.0000   999.0000  999.0000    4.2237    2.6622    1.0968    0.0794
  6.255272    5.7260   5.7175   4.2283   4.2861   0.9748   0.9836   999.0000   999.0000   999.0000  999.0000    4.2138    2.6497    1.0856    0.0793
  6.278754    5.7230   5.7144   4.2259   4.2843   0.9746   0.9835   999.0000   999.0000   999.0000  999.0000    4.2102    2.6450    1.0813    0.0793
  6.301030    5.7167   5.7077   4.2208   4.2803   0.9741   0.9833   999.0000   999.0000   999.0000  999.0000    4.2025    2.6352    1.0726    0.0792
  6.322219    5.7067   5.6973   4.2129   4.2740   0.9734   0.9830   999.0000   999.0000   999.0000  999.0000    4.1908    2.6205    1.0595    0.0790
  6.342422    5.6972   5.6873   4.2054   4.2679   0.9727   0.9826   999.0000   999.0000   999.0000  999.0000    4.1796    2.6063    1.0469    0.0789
  6.361728    5.6893   5.6791   4.1992   4.2630   0.9721   0.9823   999.0000   999.0000   999.0000  999.0000    4.1703    2.5946    1.0365    0.0788
  6.380211    5.6810   5.6703   4.1925   4.2577   0.9715   0.9820   999.0000   999.0000   999.0000  999.0000    4.1603    2.5819    1.0251    0.0787
  6.397940    5.6714   5.6603   4.1849   4.2517   0.9708   0.9817   999.0000   999.0000   999.0000  999.0000    4.1488    2.5673    1.0121    0.0786
  6.414973    5.6580   5.6461   4.1742   4.2432   0.9699   0.9812   999.0000   999.0000   999.0000  999.0000    4.1328    2.5471    0.9941    0.0784
  6.431364    5.6418   5.6292   4.1613   4.2330   0.9687   0.9807   999.0000   999.0000   999.0000  999.0000    4.1137    2.5229    0.9725    0.0782
  6.447158    5.7133   5.7080   4.2500   4.2737   0.9784   0.9849   999.0000   999.0000   999.0000  999.0000    4.2939    2.7888    1.2362    0.0784
  6.462398    6.5270   6.5187   4.9011   4.8586   1.0378   1.0157   999.0000   999.0000   999.0000  999.0000    5.1706    3.7923    2.1259    0.0953
  6.477121    6.4558   6.3743   4.9119   4.8446   1.0597   1.0294   999.0000   999.0000   999.0000  999.0000    5.2751    3.9931    2.3250    0.1008
  6.491362    6.4151   6.1304   5.0107   4.8864   1.1310   1.0729   999.0000   999.0000   999.0000  999.0000    5.5965    4.5767    2.8296    0.1201
  6.505150    5.5988   5.1695   4.5104   4.3740   1.1424   1.0863   999.0000   999.0000   999.0000  999.0000    5.1164    4.3066    2.5712    0.1213
  6.518514    4.7151   3.9729   3.9562   3.7638   1.1831   1.1237   999.0000   999.0000   999.0000  999.0000    4.6647    4.0479    2.3082    0.1342
  6.531479    4.4431   3.4711   3.7095   3.3739   1.1888   1.1331   999.0000   999.0000   999.0000  999.0000    4.5371    3.8965    2.1273    0.1356
  6.544068    4.3431   3.1602   3.6053   3.1469   1.2051   1.1486   999.0000   999.0000   999.0000  999.0000    4.5432    3.8013    2.0164    0.1392
  6.556303    3.9478   2.5234   3.3238   2.6488   1.2146   1.1614   999.0000   999.0000   999.0000  999.0000    4.4279    3.6548    1.8972    0.1359
  6.568202    3.4297   1.7940   3.0885   2.1208   1.2425   1.1884   999.0000   999.0000   999.0000  999.0000    4.2430    3.6457    1.8197    0.1438
  6.579783    2.7753   0.8657   2.7270   1.5522   1.2806   1.2243   999.0000   999.0000   999.0000  999.0000    3.8561    3.3685    1.5159    0.1501
  6.591064    3.2166   1.6652   3.0600   2.2518   1.2783   1.2105   999.0000   999.0000   999.0000  999.0000    4.0500    3.6755    1.7894    0.1527
  6.602060    3.1088   1.1239   2.8164   1.9260   1.3092   1.2405   999.0000   999.0000   999.0000  999.0000    4.1690    3.5627    1.6408    0.1649
  6.612784    3.5037   1.8290   3.0826   2.4801   1.2927   1.2193   999.0000   999.0000   999.0000  999.0000    4.2924    3.7856    1.8496    0.1664
  6.623249    4.0043   2.6463   3.3785   2.9961   1.2532   1.1814   999.0000   999.0000   999.0000  999.0000    4.4684    3.9346    2.1234    0.1588
  6.633469    3.7444   2.4321   3.1641   2.8525   1.2452   1.1765   999.0000   999.0000   999.0000  999.0000    4.1992    3.7105    1.9505    0.1542
  6.643453    3.8856   2.7573   3.3550   3.1030   1.2436   1.1722   999.0000   999.0000   999.0000  999.0000    4.2631    3.8672    2.0433    0.1523
  6.653213    4.1976   3.4209   3.7570   3.6573   1.2380   1.1609   999.0000   999.0000   999.0000  999.0000    4.4677    4.1750    2.3381    0.1478
  6.662758    4.5167   3.8418   3.9349   3.8560   1.2342   1.1548   999.0000   999.0000   999.0000  999.0000    4.5772    4.2882    2.3488    0.1468
  6.672098    5.1131   4.4996   4.2850   4.2000   1.2355   1.1503   999.0000   999.0000   999.0000  999.0000    4.9247    4.5295    2.5143    0.1487
  6.681241    6.3071   5.7835   5.0248   4.9248   1.2393   1.1428   999.0000   999.0000   999.0000  999.0000    5.7097    5.0254    2.9670    0.1535
  6.690196    6.5556   5.9325   5.1930   5.0350   1.2418   1.1441   999.0000   999.0000   999.0000  999.0000    5.9982    5.1239    3.1623    0.1562
  6.698970    4.7993   3.8396   3.9640   3.6947   1.2396   1.1614   999.0000   999.0000   999.0000  999.0000    4.8071    4.2823    2.2977    0.1521
  6.720160    5.0393   4.0125   4.0787   3.7324   1.2290   1.1535   999.0000   999.0000   999.0000  999.0000    5.0366    4.3862    2.4579    0.1510
  6.740363    5.3446   4.4821   4.2888   3.9654   1.2089   1.1351   999.0000   999.0000   999.0000  999.0000    5.2059    4.5143    2.6210    0.1427
  6.759668    5.6728   4.9781   4.5082   4.1999   1.1858   1.1153   999.0000   999.0000   999.0000  999.0000    5.3759    4.6203    2.7628    0.1339
  6.778151    5.8741   5.2538   4.6372   4.3095   1.1711   1.1033   999.0000   999.0000   999.0000  999.0000    5.5109    4.6922    2.8771    0.1281
  6.795880    6.0178   5.4716   4.7276   4.3844   1.1553   1.0913   999.0000   999.0000   999.0000  999.0000    5.5945    4.7236    2.9490    0.1221
  6.812913    6.3201   5.8510   4.9218   4.5893   1.1512   1.0859   999.0000   999.0000   999.0000  999.0000    5.7734    4.8407    3.0637    0.1210
  6.829304    6.4798   6.0410   5.0195   4.6560   1.1358   1.0755   999.0000   999.0000   999.0000  999.0000    5.7995    4.7582    3.0058    0.1160
  6.845098    6.7636   6.5096   5.1868   4.8976   1.1073   1.0528   999.0000   999.0000   999.0000  999.0000    5.8602    4.7602    3.0562    0.1070
  6.860338    6.7838   6.5683   5.2035   4.9196   1.1048   1.0505   999.0000   999.0000   999.0000  999.0000    5.8841    4.7998    3.1049    0.1056
  6.875061    6.7762   6.5973   5.2017   4.9235   1.1010   1.0476   999.0000   999.0000   999.0000  999.0000    5.8843    4.8155    3.1327    0.1038
  6.903090    7.0414   6.9415   5.3650   5.1215   1.1038   1.0472   999.0000   999.0000   999.0000  999.0000    6.0476    4.9550    3.2475    0.1056
  6.929419    7.3881   7.2823   5.5840   5.3591   1.1215   1.0564   999.0000   999.0000   999.0000  999.0000    6.2838    5.1444    3.3780    0.1131
  6.954243    7.2962   7.1751   5.5334   5.3008   1.1202   1.0562   999.0000   999.0000   999.0000  999.0000    6.2312    5.1083    3.3543    0.1122
  6.977724    7.0266   6.8902   5.3635   5.1103   1.1092   1.0510   999.0000   999.0000   999.0000  999.0000    6.0528    4.9660    3.2512    0.1073
  7.000000    7.1245   6.9994   5.4181   5.1710   1.1111   1.0516   999.0000   999.0000   999.0000  999.0000    6.1084    5.0027    3.2731    0.1084
  7.021189    6.8763   6.7286   5.2610   4.9996   1.1048   1.0494   999.0000   999.0000   999.0000  999.0000    5.9505    4.8880    3.1809    0.1054
  7.041393    6.5911   6.4296   5.0839   4.7968   1.0969   1.0456   999.0000   999.0000   999.0000  999.0000    5.7893    4.7953    3.1218    0.1008
  7.060698    6.5196   6.3599   5.0326   4.7351   1.0895   1.0412   999.0000   999.0000   999.0000  999.0000    5.7250    4.7274    3.0728    0.0978
  7.079181    6.5112   6.3752   5.0126   4.7144   1.0754   1.0325   999.0000   999.0000   999.0000  999.0000    5.6591    4.6070    2.9832    0.0933
  7.096910    6.4706   6.3277   4.9753   4.6732   1.0713   1.0305   999.0000   999.0000   999.0000  999.0000    5.6085    4.5433    2.9226    0.0921
  7.113944    6.8319   6.6745   5.2285   4.9399   1.0947   1.0432   999.0000   999.0000   999.0000  999.0000    5.8949    4.8083    3.1312    0.1012
  7.130334    7.1068   6.9244   5.4203   5.1454   1.1145   1.0542   999.0000   999.0000   999.0000  999.0000    6.1049    4.9924    3.2663    0.1092
  7.146128    7.0805   6.8813   5.4051   5.1263   1.1153   1.0551   999.0000   999.0000   999.0000  999.0000    6.0871    4.9747    3.2483    0.1095
  7.161368    6.6885   6.4879   5.1371   4.8381   1.0925   1.0433   999.0000   999.0000   999.0000  999.0000    5.7869    4.7041    3.0366    0.1005
  7.176091    6.3294   6.1255   4.8946   4.5448   1.0720   1.0315   999.0000   999.0000   999.0000  999.0000    5.5560    4.5244    2.9212    0.0904
  7.204120    6.3602   6.1244   4.9261   4.5425   1.0781   1.0346   999.0000   999.0000   999.0000  999.0000    5.6278    4.6163    3.0119    0.0912
  7.230449    6.3898   6.1186   4.9585   4.5448   1.0856   1.0387   999.0000   999.0000   999.0000  999.0000    5.6995    4.7091    3.1008    0.0925
  7.255272    6.4180   6.1267   4.9862   4.5528   1.0910   1.0416   999.0000   999.0000   999.0000  999.0000    5.7562    4.7817    3.1699    0.0935
  7.278754    6.6837   6.3180   5.1672   4.7649   1.1223   1.0615   999.0000   999.0000   999.0000  999.0000    5.9545    4.9469    3.2476    0.1071
  7.301030    6.7170   6.1899   5.1791   4.7262   1.1381   1.0733   999.0000   999.0000   999.0000  999.0000    5.9726    4.8986    3.1544    0.1137
  7.322219    6.1608   5.3855   4.7918   4.1750   1.1213   1.0683   999.0000   999.0000   999.0000  999.0000    5.5831    4.4675    2.7846    0.1052
  7.342422    5.8891   4.9997   4.6185   3.9355   1.1210   1.0707   999.0000   999.0000   999.0000  999.0000    5.4294    4.3268    2.6673    0.1033
  7.361728    5.8951   4.9931   4.6312   3.9320   1.1255   1.0731   999.0000   999.0000   999.0000  999.0000    5.4710    4.3890    2.7287    0.1038
  7.380211    5.9085   5.0089   4.6465   3.9403   1.1285   1.0746   999.0000   999.0000   999.0000  999.0000    5.5088    4.4454    2.7847    0.1041
  7.397940    5.9150   5.0449   4.6609   3.9831   1.1347   1.0781   999.0000   999.0000   999.0000  999.0000    5.5418    4.5236    2.8503    0.1061
  7.414973    6.1677   5.3800   4.8441   4.2403   1.1494   1.0852   999.0000   999.0000   999.0000  999.0000    5.7316    4.7387    3.0238    0.1124
  7.431364    6.3965   5.6692   5.0067   4.4531   1.1613   1.0906   999.0000   999.0000   999.0000  999.0000    5.9025    4.9200    3.1726    0.1173
  7.447158    6.5972   5.9175   5.1460   4.6219   1.1690   1.0936   999.0000   999.0000   999.0000  999.0000    6.0491    5.0645    3.2957    0.1205
  7.462398    6.8060   6.1714   5.2834   4.7768   1.1730   1.0943   999.0000   999.0000   999.0000  999.0000    6.1897    5.1849    3.4001    0.1224
  7.477121    6.9979   6.3971   5.4038   4.9056   1.1755   1.0943   999.0000   999.0000   999.0000  999.0000    6.3143    5.2803    3.4815    0.1237
  7.491362    6.9326   6.3264   5.3696   4.8718   1.1780   1.0961   999.0000   999.0000   999.0000  999.0000    6.2961    5.2899    3.4956    0.1240
  7.505150    6.9008   6.2888   5.3591   4.8618   1.1819   1.0986   999.0000   999.0000   999.0000  999.0000    6.3010    5.3189    3.5249    0.1248
  7.518514    6.9057   6.2929   5.3700   4.8744   1.1857   1.1007   999.0000   999.0000   999.0000  999.0000    6.3246    5.3581    3.5613    0.1257
  7.531479    6.9439   6.3357   5.4012   4.9080   1.1894   1.1026   999.0000   999.0000   999.0000  999.0000    6.3667    5.4091    3.6071    0.1267
  7.544068    7.0146   6.4166   5.4524   4.9621   1.1928   1.1040   999.0000   999.0000   999.0000  999.0000    6.4269    5.4721    3.6630    0.1276
  7.556303    7.1315   6.5649   5.5300   5.0531   1.1945   1.1039   999.0000   999.0000   999.0000  999.0000    6.5040    5.5429    3.7255    0.1283
  7.568202    7.2701   6.7320   5.6186   5.1492   1.1960   1.1036   999.0000   999.0000   999.0000  999.0000    6.5928    5.6172    3.7903    0.1290
  7.579783    7.2293   6.6880   5.5951   5.1173   1.1958   1.1036   999.0000   999.0000   999.0000  999.0000    6.5792    5.6192    3.7969    0.1283
  7.591064    7.1571   6.6047   5.5539   5.0677   1.1966   1.1045   999.0000   999.0000   999.0000  999.0000    6.5510    5.6139    3.7967    0.1279
  7.602060    7.0965   6.5340   5.5189   5.0254   1.1975   1.1054   999.0000   999.0000   999.0000  999.0000    6.5276    5.6101    3.7965    0.1276
  7.628389    7.0258   6.4447   5.4752   4.9678   1.2009   1.1079   999.0000   999.0000   999.0000  999.0000    6.5120    5.6229    3.8089    0.1279
  7.653213    6.9652   6.3774   5.4404   4.9192   1.2022   1.1088   999.0000   999.0000   999.0000  999.0000    6.4996    5.6413    3.8324    0.1273
  7.676693    6.9628   6.3858   5.4392   4.9110   1.2017   1.1081   999.0000   999.0000   999.0000  999.0000    6.5105    5.6716    3.8667    0.1263
  7.698970    6.9389   6.3585   5.4272   4.8882   1.2033   1.1089   999.0000   999.0000   999.0000  999.0000    6.5176    5.7005    3.8978    0.1259
  7.728354    6.9555   6.3734   5.4506   4.9059   1.2093   1.1121   999.0000   999.0000   999.0000  999.0000    6.5688    5.7809    3.9746    0.1268
  7.755875    7.0827   6.5082   5.5353   4.9914   1.2170   1.1157   999.0000   999.0000   999.0000  999.0000    6.6774    5.8872    4.0613    0.1291
  7.778151    7.1487   6.5919   5.5757   5.0395   1.2199   1.1166   999.0000   999.0000   999.0000  999.0000    6.7253    5.9433    4.1115    0.1301
  7.845098    6.9742   6.3786   5.4880   4.9122   1.2273   1.1215   999.0000   999.0000   999.0000  999.0000    6.7093    6.0172    4.2013    0.1292
  7.903090    7.0045   6.3890   5.5166   4.9223   1.2395   1.1282   999.0000   999.0000   999.0000  999.0000    6.7947    6.1426    4.3090    0.1314
  7.954243    7.2559   6.6846   5.6701   5.0748   1.2427   1.1270   999.0000   999.0000   999.0000  999.0000    6.9612    6.2980    4.4580    0.1317
  8.000000    7.4170   6.8450   5.7702   5.1668   1.2532   1.1317   999.0000   999.0000   999.0000  999.0000    7.0986    6.4380    4.5775    0.1346
  8.041392    7.4762   6.9124   5.8172   5.2089   1.2594   1.1342   999.0000   999.0000   999.0000  999.0000    7.1755    6.5373    4.6723    0.1352
  8.079182    7.6059   7.0349   5.8971   5.2866   1.2701   1.1394   999.0000   999.0000   999.0000  999.0000    7.2856    6.6462    4.7576    0.1382
  8.146128    7.8328   7.2808   6.0339   5.4501   1.2801   1.1433   999.0000   999.0000   999.0000  999.0000    7.4159    6.7620    4.8296    0.1417
  8.204120    7.9875   7.4115   6.1301   5.5671   1.2942   1.1514   999.0000   999.0000   999.0000  999.0000    7.5187    6.8411    4.8415    0.1469
  8.255273    7.9479   7.3494   6.1123   5.5754   1.3009   1.1560   999.0000   999.0000   999.0000  999.0000    7.4844    6.8281    4.8027    0.1501
  8.301030    7.9636   7.3405   6.1340   5.6096   1.3101   1.1617   999.0000   999.0000   999.0000  999.0000    7.5051    6.8665    4.7865    0.1535
  8.352182    8.0545   7.4059   6.1614   5.6471   1.3235   1.1697   999.0000   999.0000   999.0000  999.0000    7.5136    6.8992    4.7022    0.1591
  8.397940    8.2989   7.6033   6.2666   5.7425   1.3384   1.1775   999.0000   999.0000   999.0000  999.0000    7.6079    6.9848    4.6603    0.1654
  8.439333    8.6011   7.8024   6.4082   5.8562   1.3574   1.1884   999.0000   999.0000   999.0000  999.0000    7.8039    7.0968    4.6887    0.1739
  8.477121    8.9832   8.1369   6.6164   6.0685   1.3793   1.2002   999.0000   999.0000   999.0000  999.0000    8.0551    7.2606    4.7376    0.1835
  8.544068    9.6806   8.7562   6.9871   6.4445   1.4253   1.2248   999.0000   999.0000   999.0000  999.0000    8.4987    7.5898    4.8069    0.2008
  8.602060   10.1661   9.2167   7.2496   6.7172   1.4570   1.2402   999.0000   999.0000   999.0000  999.0000    8.7524    7.8286    4.8708    0.2101
  8.653213   10.0269   9.0598   7.2040   6.6697   1.4564   1.2406   999.0000   999.0000   999.0000  999.0000    8.7078    7.8279    4.8717    0.2090
  8.698970    9.7392   8.7342   7.0753   6.5190   1.4561   1.2426   999.0000   999.0000   999.0000  999.0000    8.5829    7.8106    4.8416    0.2077
  8.740363    9.4309   8.3971   6.9306   6.3479   1.4562   1.2450   999.0000   999.0000   999.0000  999.0000    8.4499    7.7840    4.7973    0.2058
  8.778152    9.2343   8.1827   6.8351   6.2397   1.4572   1.2472   999.0000   999.0000   999.0000  999.0000    8.3522    7.7584    4.7716    0.2041
  8.812913    8.9987   7.9328   6.7177   6.1111   1.4590   1.2505   999.0000   999.0000   999.0000  999.0000    8.2211    7.7349    4.7332    0.2016
  8.845098    8.7435   7.6469   6.5682   5.9472   1.4613   1.2545   999.0000   999.0000   999.0000  999.0000    8.0695    7.6672    4.6591    0.2008
  8.875061    8.4341   7.3120   6.3738   5.7455   1.4615   1.2582   999.0000   999.0000   999.0000  999.0000    7.8688    7.5399    4.5545    0.1994
  8.903090    8.1905   7.0401   6.2174   5.5760   1.4643   1.2626   999.0000   999.0000   999.0000  999.0000    7.7013    7.4603    4.4674    0.1990
  8.929419    7.9563   6.7803   6.0667   5.4168   1.4659   1.2661   999.0000   999.0000   999.0000  999.0000    7.5480    7.3637    4.3833    0.1986
  8.954243    7.7127   6.5252   5.9094   5.2638   1.4647   1.2682   999.0000   999.0000   999.0000  999.0000    7.3947    7.2407    4.2943    0.1978
  9.000000    7.1503   5.9077   5.5553   4.8930   1.4662   1.2756   999.0000   999.0000   999.0000  999.0000    7.0545    7.0307    4.0915    0.1978
  9.041392    6.7667   5.4867   5.2850   4.6161   1.4741   1.2856   999.0000   999.0000   999.0000  999.0000    6.7740    6.8530    3.9317    0.1967
  9.079182    6.3279   4.9898   4.9778   4.2901   1.4843   1.2980   999.0000   999.0000   999.0000  999.0000    6.4342    6.6866    3.7374    0.1965
  9.113943    5.8049   4.3543   4.6253   3.8910   1.5046   1.3188   999.0000   999.0000   999.0000  999.0000    6.0919    6.4840    3.5544    0.1980
  9.146128    4.9841   3.3769   4.1280   3.3140   1.5313   1.3489   999.0000   999.0000   999.0000  999.0000    5.6882    6.1705    3.3350    0.2010
  9.176091    4.1805   2.3777   3.6530   2.7371   1.5630   1.3836   999.0000   999.0000   999.0000  999.0000    5.3278    5.8704    3.1410    0.2056
  9.204120    3.7204   1.7738   3.3907   2.3950   1.5948   1.4101   999.0000   999.0000   999.0000  999.0000    5.1835    5.6533    3.0970    0.2066
  9.230449    4.0727   2.3530   3.6256   2.7921   1.5391   1.3652   999.0000   999.0000   999.0000  999.0000    5.2682    5.6962    3.1467    0.2015
  9.255273    3.5849   1.8503   3.3765   2.5283   1.5479   1.3777   999.0000   999.0000   999.0000  999.0000    5.0491    5.5380    3.0433    0.2018
  9.278753    3.2612   1.5201   3.2161   2.3615   1.5530   1.3854   999.0000   999.0000   999.0000  999.0000    4.8905    5.4190    2.9714    0.2022
  9.301030    3.0564   1.2719   3.0965   2.2289   1.5577   1.3916   999.0000   999.0000   999.0000  999.0000    4.7501    5.3312    2.8902    0.2049
  9.322219    2.7950   0.9609   2.9412   2.0489   1.5670   1.4010   999.0000   999.0000   999.0000  999.0000    4.5640    5.1979    2.7795    0.2088
  9.342422    2.5636   0.6753   2.8049   1.8926   1.5751   1.4104   999.0000   999.0000   999.0000  999.0000    4.4228    5.1200    2.6994    0.2116
  9.361728    2.3510   0.4109   2.6720   1.7513   1.5828   1.4204   999.0000   999.0000   999.0000  999.0000    4.3155    5.0809    2.6303    0.2145
  9.380211    2.1251   0.1295   2.5283   1.5881   1.5929   1.4322   999.0000   999.0000   999.0000  999.0000    4.2015    5.0483    2.5440    0.2180
  9.397940    1.7351  -0.3897   2.2931   1.2754   1.6238   1.4621   999.0000   999.0000   999.0000  999.0000    4.0478    5.0119    2.4269    0.2243
  9.414973    1.4232  -0.7865   2.1045   1.0318   1.6464   1.4850   999.0000   999.0000   999.0000  999.0000    3.9181    4.9872    2.3192    0.2290
  9.447158    1.1808  -1.1030   1.9548   0.8384   1.6604   1.4998   999.0000   999.0000   999.0000  999.0000    3.7783    4.9449    2.2282    0.2325
  9.477121    1.0858  -1.2122   1.9003   0.7668   1.6646   1.5039   999.0000   999.0000   999.0000  999.0000    3.7314    4.9266    2.1861    0.2339
  9.511884    1.0564  -1.2402   1.8732   0.7431   1.6608   1.5018   999.0000   999.0000   999.0000  999.0000    3.6793    4.8853    2.1544    0.2339
  9.544068    0.8643  -1.4863   1.7535   0.5859   1.6759   1.5169   999.0000   999.0000   999.0000  999.0000    3.5678    4.7977    2.0878    0.2361
  9.574031    0.6854  -1.7057   1.6488   0.4454   1.6884   1.5291   999.0000   999.0000   999.0000  999.0000    3.4818    4.7456    2.0140    0.2387
  9.602060    0.6294  -1.7650   1.6102   0.3984   1.6860   1.5277   999.0000   999.0000   999.0000  999.0000    3.4210    4.7128    1.9619    0.2396
  9.628389    0.5235  -1.9088   1.5446   0.3085   1.6907   1.5332   999.0000   999.0000   999.0000  999.0000    3.3414    4.6658    1.9174    0.2406
  9.653213    0.3811  -2.0994   1.4646   0.1914   1.7002   1.5427   999.0000   999.0000   999.0000  999.0000    3.2539    4.6173    1.8694    0.2418
  9.676694    0.2671  -2.2569   1.4010   0.0980   1.7077   1.5503   999.0000   999.0000   999.0000  999.0000    3.1933    4.5955    1.8368    0.2426
  9.698970    0.1544  -2.4100   1.3394   0.0064   1.7168   1.5592   999.0000   999.0000   999.0000  999.0000    3.1419    4.6064    1.8080    0.2440
  9.720160    0.0637  -2.5374   1.2879  -0.0690   1.7263   1.5680   999.0000   999.0000   999.0000  999.0000    3.1133    4.6207    1.7905    0.2454
  9.740363   -0.0158  -2.6517   1.2431  -0.1371   1.7348   1.5759   999.0000   999.0000   999.0000  999.0000    3.0905    4.6461    1.7753    0.2468
  9.759667   -0.0979  -2.7704   1.1981  -0.2076   1.7432   1.5840   999.0000   999.0000   999.0000  999.0000    3.0661    4.6683    1.7552    0.2486
  9.778152   -0.1734  -2.8801   1.1563  -0.2731   1.7508   1.5913   999.0000   999.0000   999.0000  999.0000    3.0346    4.6837    1.7326    0.2502
  9.795880   -0.2536  -2.9968   1.1167  -0.3452   1.7579   1.5985   999.0000   999.0000   999.0000  999.0000    2.9925    4.7045    1.7038    0.2519
  9.812913   -0.3198  -3.0928   1.0785  -0.4039   1.7636   1.6045   999.0000   999.0000   999.0000  999.0000    2.9614    4.7110    1.6826    0.2532
  9.829304   -0.3799  -3.1798   1.0439  -0.4574   1.7691   1.6103   999.0000   999.0000   999.0000  999.0000    2.9398    4.7166    1.6671    0.2544
  9.845098   -0.4394  -3.2636   1.0099  -0.5090   1.7747   1.6162   999.0000   999.0000   999.0000  999.0000    2.9181    4.7238    1.6526    0.2556
  9.860338   -0.4968  -3.3420   0.9775  -0.5563   1.7803   1.6222   999.0000   999.0000   999.0000  999.0000    2.9035    4.7320    1.6415    0.2568
  9.875061   -0.5566  -3.4230   0.9436  -0.6051   1.7863   1.6285   999.0000   999.0000   999.0000  999.0000    2.8837    4.7394    1.6288    0.2581
  9.889301   -0.6129  -3.5027   0.9120  -0.6514   1.7924   1.6350   999.0000   999.0000   999.0000  999.0000    2.8607    4.7570    1.6162    0.2594
  9.903090   -0.6639  -3.5794   0.8841  -0.6952   1.7987   1.6416   999.0000   999.0000   999.0000  999.0000    2.8336    4.7795    1.6033    0.2606
  9.916454   -0.7083  -3.6474   0.8603  -0.7335   1.8045   1.6477   999.0000   999.0000   999.0000  999.0000    2.8053    4.8022    1.5913    0.2616
  9.929419   -0.7507  -3.7124   0.8384  -0.7703   1.8102   1.6536   999.0000   999.0000   999.0000  999.0000    2.7746    4.8257    1.5786    0.2627
  9.942008   -0.7915  -3.7757   0.8182  -0.8058   1.8160   1.6596   999.0000   999.0000   999.0000  999.0000    2.7426    4.8513    1.5656    0.2636
  9.954243   -0.8318  -3.8402   0.7990  -0.8424   1.8220   1.6659   999.0000   999.0000   999.0000  999.0000    2.7073    4.8777    1.5518    0.2646
  9.966142   -0.8766  -3.9031   0.7804  -0.8813   1.8286   1.6721   999.0000   999.0000   999.0000  999.0000    2.6778    4.9055    1.5321    0.2656
  9.977724   -0.9185  -3.9598   0.7639  -0.9168   1.8350   1.6780   999.0000   999.0000   999.0000  999.0000    2.6482    4.9314    1.5133    0.2665
  9.989004   -0.9582  -4.0117   0.7487  -0.9497   1.8409   1.6834   999.0000   999.0000   999.0000  999.0000    2.6194    4.9540    1.4959    0.2673
 10.000000   -0.9979  -4.0611   0.7334  -0.9813   1.8467   1.6886   999.0000   999.0000   999.0000  999.0000    2.5927    4.9742    1.4797    0.2681
 10.010724   -1.0355  -4.1075   0.7194  -1.0109   1.8522   1.6935   999.0000   999.0000   999.0000  999.0000    2.5704    4.9942    1.4655    0.2688
 10.021190   -1.0720  -4.1511   0.7063  -1.0388   1.8575   1.6982   999.0000   999.0000   999.0000  999.0000    2.5496    5.0128    1.4524    0.2695
 10.031408   -1.1086  -4.1934   0.6930  -1.0661   1.8628   1.7028   999.0000   999.0000   999.0000  999.0000    2.5301    5.0298    1.4400    0.2701
 10.041392   -1.1422  -4.2364   0.6794  -1.0935   1.8677   1.7073   999.0000   999.0000   999.0000  999.0000    2.5098    5.0381    1.4305    0.2706
 10.051152   -1.1710  -4.2735   0.6669  -1.1173   1.8717   1.7109   999.0000   999.0000   999.0000  999.0000    2.4895    5.0404    1.4221    0.2710
 10.060698   -1.2000  -4.3106   0.6544  -1.1410   1.8758   1.7145   999.0000   999.0000   999.0000  999.0000    2.4722    5.0438    1.4150    0.2714
 10.070038   -1.2291  -4.3472   0.6418  -1.1642   1.8798   1.7182   999.0000   999.0000   999.0000  999.0000    2.4563    5.0475    1.4083    0.2718
 10.079182   -1.2429  -4.3695   0.6258  -1.1804   1.8820   1.7204   999.0000   999.0000   999.0000  999.0000    2.4642    5.0367    1.4070    0.2718
 10.088136   -1.2698  -4.4041   0.6139  -1.2015   1.8860   1.7241   999.0000   999.0000   999.0000  999.0000    2.4548    5.0442    1.4028    0.2722
 10.096910   -1.2935  -4.4360   0.6015  -1.2214   1.8897   1.7275   999.0000   999.0000   999.0000  999.0000    2.4481    5.0466    1.3993    0.2725
 10.105510   -1.3180  -4.4686   0.5900  -1.2412   1.8935   1.7311   999.0000   999.0000   999.0000  999.0000    2.4402    5.0517    1.3958    0.2728
 10.113943   -1.3400  -4.4987   0.5782  -1.2595   1.8971   1.7345   999.0000   999.0000   999.0000  999.0000    2.4348    5.0562    1.3925    0.2731
 10.122216   -1.3653  -4.5329   0.5656  -1.2798   1.9013   1.7385   999.0000   999.0000   999.0000  999.0000    2.4279    5.0605    1.3890    0.2735
 10.130334   -1.3823  -4.5546   0.5567  -1.2925   1.9040   1.7411   999.0000   999.0000   999.0000  999.0000    2.4230    5.0602    1.3855    0.2738
 10.138303   -1.4005  -4.5798   0.5476  -1.3073   1.9064   1.7432   999.0000   999.0000   999.0000  999.0000    2.4183    5.0653    1.3804    0.2742
 10.146128   -1.4163  -4.6029   0.5386  -1.3207   1.9087   1.7455   999.0000   999.0000   999.0000  999.0000    2.4156    5.0685    1.3767    0.2745
