#                                                     Mon Jul 29 20:42:42 2019
#          I------------------------------------------------------------------------------------------------------------------------I
#          I                                                                                                                        I
#          I      BC_GALAXEV  ---  MODEL PARAMETERS:   Generic file name for this model = cb2018_z030_chab_hr_smiles_ssp            I
#          I                                                                                                                        I
#          I      TRACKS: Padova 2013 + Marigo 2013, X=0.668, Y=0.302, Z=0.030                                                      I
#          I                                                                                                                        I
#          I      S.F.R.: SSP = Zero Length Burst at t = 0                                                                          I
#          I                                                                                                                        I
#          I                                                                                                                        I
#          I      I.M.F.: Lognormal + power law                                                                                     I
#          I                                                                      mass in      number                               I
#          I                                                  from m     to m     segment    of stars      c                        I
#          I                                        lognormal   0.10     1.00      0.4057      1.3076                               I
#          I                                          x=1.3     1.00   100.00      0.5943      0.1827                               I
#          I                                                                                                                        I
#          I                                                           totals      1.0000      1.4903  0.6710 Mo/star               I
#          I                                                                                                                        I
#          I                                                                                                                        I
#          I                                                                                                                        I
#          I                                                                                                                        I
#          I      LISTED: Rest frame properties                                                                                     I
#          I                                                                                                                        I
#          I                                                                                                                        I
#          I                              (C) 1995-2017 G. Bruzual A. & S. Charlot - All Rights Reserved                            I
#          I------------------------------------------------------------------------------------------------------------------------I
#
#    (1)        (2)      (3)      (4)      (5)      (6)      (7)       (8)        (9)        (10)      (11)      (12)      (13)      (14)      (15)
#
# Index_No.    WO-1:    WO-2:    WO-3:    WO-4:    GC-1:    4000A    DTT-Ca1    DTT-Ca2    DTT-Ca3   DTT-MgI     DM-04     DM-04     DM-04       BH:
# log-age    HdeltaA  HgammaA  HdeltaF  HgammaF  D(4000)    B4_VN   CaII8498   CaII8542   CaII8662   MgI8807   H8_3889   H9_3835  H10_3798     BH-HK
#   (yr)        (A)      (A)      (A)      (A)       .        .         (A)        (A)        (A)       (A)       (A)       (A)       (A)        (A)
  4.000000    6.7386   6.7636   5.7333   5.9469   1.0577   0.9983   999.0000   999.0000   999.0000  999.0000    6.5900    5.0861    4.1735    0.0893
  4.301030    6.7386   6.7636   5.7333   5.9469   1.0577   0.9983   999.0000   999.0000   999.0000  999.0000    6.5900    5.0861    4.1735    0.0893
  4.477121    6.7386   6.7636   5.7333   5.9469   1.0577   0.9983   999.0000   999.0000   999.0000  999.0000    6.5900    5.0861    4.1735    0.0893
  4.602060    6.7386   6.7636   5.7333   5.9469   1.0577   0.9983   999.0000   999.0000   999.0000  999.0000    6.5900    5.0861    4.1735    0.0893
  4.698970    6.7386   6.7636   5.7333   5.9469   1.0577   0.9983   999.0000   999.0000   999.0000  999.0000    6.5900    5.0861    4.1735    0.0893
  4.778151    6.7386   6.7636   5.7333   5.9469   1.0577   0.9983   999.0000   999.0000   999.0000  999.0000    6.5900    5.0861    4.1735    0.0893
  4.845098    6.7387   6.7636   5.7333   5.9470   1.0577   0.9983   999.0000   999.0000   999.0000  999.0000    6.5900    5.0862    4.1735    0.0893
  4.903090    6.7382   6.7632   5.7331   5.9467   1.0577   0.9983   999.0000   999.0000   999.0000  999.0000    6.5898    5.0859    4.1733    0.0893
  4.954243    6.7375   6.7626   5.7326   5.9463   1.0577   0.9983   999.0000   999.0000   999.0000  999.0000    6.5895    5.0854    4.1731    0.0893
  5.000000    6.7371   6.7621   5.7323   5.9461   1.0577   0.9982   999.0000   999.0000   999.0000  999.0000    6.5893    5.0851    4.1729    0.0893
  5.060698    6.7360   6.7611   5.7316   5.9455   1.0576   0.9982   999.0000   999.0000   999.0000  999.0000    6.5888    5.0843    4.1725    0.0893
  5.113944    6.7348   6.7599   5.7308   5.9447   1.0576   0.9982   999.0000   999.0000   999.0000  999.0000    6.5882    5.0834    4.1720    0.0892
  5.161368    6.7346   6.7597   5.7307   5.9446   1.0575   0.9982   999.0000   999.0000   999.0000  999.0000    6.5881    5.0833    4.1720    0.0892
  5.204120    6.7345   6.7596   5.7307   5.9446   1.0575   0.9982   999.0000   999.0000   999.0000  999.0000    6.5881    5.0832    4.1719    0.0892
  5.243038    6.7343   6.7594   5.7305   5.9445   1.0575   0.9981   999.0000   999.0000   999.0000  999.0000    6.5880    5.0831    4.1718    0.0892
  5.255272    6.7337   6.7588   5.7302   5.9441   1.0575   0.9981   999.0000   999.0000   999.0000  999.0000    6.5877    5.0827    4.1716    0.0892
  5.278754    6.7332   6.7583   5.7298   5.9438   1.0575   0.9981   999.0000   999.0000   999.0000  999.0000    6.5875    5.0823    4.1714    0.0892
  5.301030    6.7330   6.7582   5.7297   5.9438   1.0575   0.9981   999.0000   999.0000   999.0000  999.0000    6.5874    5.0822    4.1714    0.0892
  5.397940    6.7319   6.7571   5.7290   5.9431   1.0574   0.9981   999.0000   999.0000   999.0000  999.0000    6.5869    5.0814    4.1709    0.0892
  5.477121    6.7301   6.7554   5.7279   5.9421   1.0573   0.9980   999.0000   999.0000   999.0000  999.0000    6.5861    5.0801    4.1703    0.0891
  5.544068    6.7288   6.7541   5.7271   5.9413   1.0573   0.9980   999.0000   999.0000   999.0000  999.0000    6.5855    5.0792    4.1698    0.0891
  5.602060    6.7276   6.7529   5.7262   5.9406   1.0572   0.9979   999.0000   999.0000   999.0000  999.0000    6.5849    5.0783    4.1693    0.0890
  5.653213    6.7273   6.7526   5.7261   5.9405   1.0572   0.9979   999.0000   999.0000   999.0000  999.0000    6.5847    5.0781    4.1692    0.0890
  5.698970    6.7270   6.7523   5.7259   5.9403   1.0572   0.9979   999.0000   999.0000   999.0000  999.0000    6.5846    5.0779    4.1691    0.0890
  5.740363    6.7267   6.7521   5.7257   5.9401   1.0572   0.9979   999.0000   999.0000   999.0000  999.0000    6.5845    5.0777    4.1690    0.0890
  5.778151    6.7260   6.7514   5.7253   5.9397   1.0571   0.9979   999.0000   999.0000   999.0000  999.0000    6.5841    5.0772    4.1687    0.0890
  5.812913    6.7251   6.7505   5.7247   5.9392   1.0571   0.9978   999.0000   999.0000   999.0000  999.0000    6.5837    5.0766    4.1683    0.0890
  5.845098    6.7232   6.7487   5.7235   5.9381   1.0570   0.9978   999.0000   999.0000   999.0000  999.0000    6.5828    5.0752    4.1676    0.0889
  5.875061    6.7222   6.7477   5.7228   5.9375   1.0569   0.9977   999.0000   999.0000   999.0000  999.0000    6.5824    5.0745    4.1672    0.0889
  5.903090    6.7211   6.7466   5.7221   5.9369   1.0569   0.9977   999.0000   999.0000   999.0000  999.0000    6.5819    5.0737    4.1668    0.0889
  5.929419    6.7197   6.7453   5.7213   5.9361   1.0568   0.9977   999.0000   999.0000   999.0000  999.0000    6.5812    5.0728    4.1663    0.0888
  5.954243    6.7186   6.7442   5.7205   5.9355   1.0567   0.9976   999.0000   999.0000   999.0000  999.0000    6.5807    5.0720    4.1659    0.0888
  5.977724    6.7178   6.7435   5.7201   5.9351   1.0567   0.9976   999.0000   999.0000   999.0000  999.0000    6.5804    5.0715    4.1656    0.0888
  6.000000    6.7175   6.7432   5.7199   5.9349   1.0567   0.9976   999.0000   999.0000   999.0000  999.0000    6.5802    5.0712    4.1655    0.0888
  6.041393    6.7155   6.7412   5.7186   5.9337   1.0566   0.9975   999.0000   999.0000   999.0000  999.0000    6.5793    5.0698    4.1647    0.0887
  6.079181    6.7118   6.7376   5.7162   5.9316   1.0564   0.9974   999.0000   999.0000   999.0000  999.0000    6.5775    5.0672    4.1633    0.0886
  6.113944    6.7090   6.7349   5.7144   5.9300   1.0563   0.9973   999.0000   999.0000   999.0000  999.0000    6.5762    5.0652    4.1622    0.0885
  6.146128    6.7062   6.7322   5.7127   5.9284   1.0561   0.9972   999.0000   999.0000   999.0000  999.0000    6.5749    5.0633    4.1612    0.0885
  6.176091    6.7039   6.7299   5.7112   5.9270   1.0560   0.9971   999.0000   999.0000   999.0000  999.0000    6.5738    5.0616    4.1603    0.0884
  6.204120    6.7012   6.7274   5.7095   5.9255   1.0559   0.9970   999.0000   999.0000   999.0000  999.0000    6.5726    5.0597    4.1593    0.0883
  6.230449    6.6974   6.7237   5.7071   5.9234   1.0557   0.9969   999.0000   999.0000   999.0000  999.0000    6.5709    5.0571    4.1578    0.0882
  6.255272    6.6951   6.7214   5.7056   5.9220   1.0556   0.9968   999.0000   999.0000   999.0000  999.0000    6.5698    5.0554    4.1569    0.0882
  6.278754    6.6915   6.7180   5.7033   5.9200   1.0554   0.9967   999.0000   999.0000   999.0000  999.0000    6.5681    5.0529    4.1556    0.0881
  6.301030    6.6874   6.7140   5.7007   5.9176   1.0552   0.9966   999.0000   999.0000   999.0000  999.0000    6.5662    5.0500    4.1540    0.0880
  6.322219    6.6835   6.7102   5.6982   5.9154   1.0550   0.9964   999.0000   999.0000   999.0000  999.0000    6.5644    5.0473    4.1526    0.0879
  6.342422    6.6794   6.7062   5.6956   5.9130   1.0548   0.9963   999.0000   999.0000   999.0000  999.0000    6.5625    5.0444    4.1510    0.0877
  6.361728    6.6754   6.7023   5.6930   5.9107   1.0546   0.9962   999.0000   999.0000   999.0000  999.0000    6.5606    5.0415    4.1495    0.0876
  6.380211    6.6715   6.6985   5.6906   5.9085   1.0544   0.9960   999.0000   999.0000   999.0000  999.0000    6.5588    5.0388    4.1480    0.0875
  6.397940    6.6691   6.6962   5.6891   5.9072   1.0543   0.9960   999.0000   999.0000   999.0000  999.0000    6.5577    5.0371    4.1471    0.0875
  6.414973    6.5324   6.5329   5.5557   5.7656   1.0519   0.9949   999.0000   999.0000   999.0000  999.0000    6.4117    4.9429    4.0814    0.0868
  6.431364    6.5825   6.5080   5.5781   5.7454   1.0523   0.9954   999.0000   999.0000   999.0000  999.0000    6.4108    4.9595    4.0929    0.0864
  6.447158    6.1786   5.9111   5.1364   5.2315   1.0455   0.9925   999.0000   999.0000   999.0000  999.0000    5.9099    4.6866    3.9033    0.0837
  6.462398    6.0460   5.4128   4.9022   4.8308   1.0445   0.9955   999.0000   999.0000   999.0000  999.0000    5.5762    4.5846    3.8506    0.0823
  6.477121    6.0839   5.5112   4.9717   4.9288   1.0450   0.9958   999.0000   999.0000   999.0000  999.0000    5.6737    4.5991    3.8639    0.0808
  6.491362    6.0753   5.4998   4.9815   4.9158   1.0434   0.9952   999.0000   999.0000   999.0000  999.0000    5.6433    4.5358    3.8285    0.0796
  6.505150    6.0997   5.5457   5.0105   4.9577   1.0429   0.9950   999.0000   999.0000   999.0000  999.0000    5.6853    4.5331    3.8433    0.0790
  6.518514    6.1667   5.6865   5.1005   5.0785   1.0442   0.9958   999.0000   999.0000   999.0000  999.0000    5.8002    4.5750    3.8723    0.0797
  6.531479    6.2673   5.7987   5.1845   5.1656   1.0452   0.9956   999.0000   999.0000   999.0000  999.0000    5.8833    4.6337    3.9165    0.0801
  6.544068    6.2976   5.8623   5.2335   5.2174   1.0451   0.9951   999.0000   999.0000   999.0000  999.0000    5.9204    4.6373    3.9118    0.0800
  6.556303    6.2938   5.8673   5.2357   5.2317   1.0462   0.9974   999.0000   999.0000   999.0000  999.0000    5.9517    4.6343    3.8883    0.0812
  6.568202    6.3881   5.9012   5.2895   5.2444   1.0460   0.9959   999.0000   999.0000   999.0000  999.0000    5.9515    4.6695    3.9287    0.0808
  6.579783    6.4373   6.0568   5.3624   5.3879   1.0495   0.9987   999.0000   999.0000   999.0000  999.0000    6.1392    4.7600    3.9768    0.0827
  6.591064    6.4940   6.0419   5.3830   5.3661   1.0491   0.9979   999.0000   999.0000   999.0000  999.0000    6.0889    4.7674    4.0037    0.0829
  6.602060    6.4832   6.2049   5.4436   5.5271   1.0559   1.0023   999.0000   999.0000   999.0000  999.0000    6.2828    4.8785    4.0482    0.0865
  6.612784    6.5237   6.2136   5.4642   5.5479   1.0628   1.0077   999.0000   999.0000   999.0000  999.0000    6.3003    4.9259    4.0857    0.0896
  6.623249    6.4771   5.9472   5.3589   5.3431   1.0649   1.0113   999.0000   999.0000   999.0000  999.0000    6.1157    4.8930    4.0582    0.0909
  6.633469    6.4710   6.0966   5.4203   5.4768   1.0674   1.0121   999.0000   999.0000   999.0000  999.0000    6.2688    4.9371    4.0817    0.0919
  6.643453    6.4257   5.9972   5.3622   5.3990   1.0714   1.0164   999.0000   999.0000   999.0000  999.0000    6.2283    4.9151    4.0537    0.0925
  6.653213    6.3842   5.9043   5.2973   5.3169   1.0748   1.0201   999.0000   999.0000   999.0000  999.0000    6.1670    4.8914    4.0187    0.0931
  6.662758    6.3220   5.8536   5.2494   5.2728   1.0789   1.0238   999.0000   999.0000   999.0000  999.0000    6.1116    4.8726    3.9872    0.0945
  6.672098    6.2742   5.8433   5.2238   5.2601   1.0831   1.0273   999.0000   999.0000   999.0000  999.0000    6.0797    4.8629    3.9660    0.0961
  6.681241    6.2589   5.8510   5.2441   5.2803   1.0822   1.0260   999.0000   999.0000   999.0000  999.0000    6.1315    4.8817    3.9841    0.0957
  6.690196    6.2514   5.8884   5.2839   5.3259   1.0808   1.0238   999.0000   999.0000   999.0000  999.0000    6.2073    4.9118    4.0104    0.0952
  6.698970    6.1436   5.7729   5.2796   5.3011   1.0862   1.0271   999.0000   999.0000   999.0000  999.0000    6.2751    4.9579    4.0358    0.0973
  6.720160    6.0297   5.4127   5.2369   5.1278   1.0911   1.0309   999.0000   999.0000   999.0000  999.0000    6.3569    5.0182    4.0839    0.0981
  6.740363    6.1539   5.4047   5.2837   5.1114   1.0831   1.0242   999.0000   999.0000   999.0000  999.0000    6.3667    5.0051    4.0978    0.0949
  6.759668    6.2226   5.5136   5.3112   5.1595   1.0798   1.0219   999.0000   999.0000   999.0000  999.0000    6.3561    4.9992    4.0965    0.0940
  6.778151    6.3203   5.8502   5.4002   5.3576   1.0767   1.0190   999.0000   999.0000   999.0000  999.0000    6.3910    5.0198    4.1068    0.0945
  6.795880    6.3783   6.0631   5.4620   5.4817   1.0746   1.0172   999.0000   999.0000   999.0000  999.0000    6.4267    5.0366    4.1194    0.0949
  6.812913    6.4018   6.1632   5.5082   5.5432   1.0733   1.0159   999.0000   999.0000   999.0000  999.0000    6.4777    5.0565    4.1388    0.0950
  6.829304    6.3840   6.1317   5.5361   5.5348   1.0739   1.0159   999.0000   999.0000   999.0000  999.0000    6.5432    5.0847    4.1660    0.0953
  6.845098    6.3518   6.1161   5.5431   5.5330   1.0766   1.0181   999.0000   999.0000   999.0000  999.0000    6.5676    5.1051    4.1789    0.0968
  6.860338    6.3607   6.1425   5.5597   5.5546   1.0772   1.0183   999.0000   999.0000   999.0000  999.0000    6.5832    5.1186    4.1877    0.0973
  6.875061    6.3547   6.1232   5.5574   5.5437   1.0780   1.0189   999.0000   999.0000   999.0000  999.0000    6.5842    5.1223    4.1897    0.0975
  6.903090    6.3419   6.0611   5.5519   5.5112   1.0796   1.0200   999.0000   999.0000   999.0000  999.0000    6.5855    5.1298    4.1941    0.0979
  6.929419    6.3674   6.0465   5.5637   5.5106   1.0794   1.0190   999.0000   999.0000   999.0000  999.0000    6.5884    5.1359    4.1983    0.0975
  6.954243    6.3843   6.0482   5.5731   5.5143   1.0800   1.0192   999.0000   999.0000   999.0000  999.0000    6.5955    5.1454    4.2033    0.0978
  6.977724    6.4027   6.0502   5.5834   5.5188   1.0807   1.0194   999.0000   999.0000   999.0000  999.0000    6.6044    5.1558    4.2090    0.0980
  7.000000    6.4450   6.1012   5.6061   5.5512   1.0806   1.0188   999.0000   999.0000   999.0000  999.0000    6.6173    5.1688    4.2162    0.0981
  7.021189    6.4777   6.1443   5.6243   5.5788   1.0807   1.0186   999.0000   999.0000   999.0000  999.0000    6.6280    5.1814    4.2232    0.0982
  7.041393    6.5365   6.2341   5.6541   5.6353   1.0796   1.0170   999.0000   999.0000   999.0000  999.0000    6.6368    5.1913    4.2291    0.0979
  7.060698    6.5590   6.2655   5.6657   5.6551   1.0794   1.0167   999.0000   999.0000   999.0000  999.0000    6.6388    5.1970    4.2324    0.0979
  7.079181    6.5607   6.2568   5.6666   5.6518   1.0801   1.0171   999.0000   999.0000   999.0000  999.0000    6.6385    5.2018    4.2352    0.0981
  7.096910    6.5774   6.2651   5.6762   5.6596   1.0807   1.0173   999.0000   999.0000   999.0000  999.0000    6.6463    5.2126    4.2412    0.0983
  7.113944    6.6120   6.3003   5.6950   5.6846   1.0809   1.0169   999.0000   999.0000   999.0000  999.0000    6.6584    5.2256    4.2486    0.0984
  7.130334    6.6527   6.3526   5.7173   5.7175   1.0809   1.0164   999.0000   999.0000   999.0000  999.0000    6.6717    5.2392    4.2561    0.0985
  7.146128    6.6664   6.3630   5.7247   5.7250   1.0812   1.0165   999.0000   999.0000   999.0000  999.0000    6.6766    5.2458    4.2596    0.0987
  7.161368    6.6588   6.3378   5.7203   5.7114   1.0820   1.0170   999.0000   999.0000   999.0000  999.0000    6.6752    5.2482    4.2607    0.0989
  7.176091    6.6557   6.3163   5.7190   5.7006   1.0829   1.0177   999.0000   999.0000   999.0000  999.0000    6.6769    5.2534    4.2635    0.0992
  7.204120    6.6480   6.2697   5.7157   5.6776   1.0848   1.0189   999.0000   999.0000   999.0000  999.0000    6.6788    5.2639    4.2693    0.0997
  7.230449    6.6757   6.2846   5.7345   5.6903   1.0862   1.0196   999.0000   999.0000   999.0000  999.0000    6.6973    5.2866    4.2823    0.1004
  7.255272    6.7091   6.3192   5.7571   5.7125   1.0874   1.0203   999.0000   999.0000   999.0000  999.0000    6.7156    5.3098    4.2955    0.1011
  7.278754    6.7222   6.3252   5.7651   5.7157   1.0886   1.0212   999.0000   999.0000   999.0000  999.0000    6.7224    5.3218    4.3017    0.1017
  7.301030    6.7341   6.3428   5.7711   5.7243   1.0892   1.0218   999.0000   999.0000   999.0000  999.0000    6.7223    5.3270    4.3040    0.1020
  7.322219    6.7448   6.3472   5.7777   5.7267   1.0905   1.0228   999.0000   999.0000   999.0000  999.0000    6.7278    5.3379    4.3094    0.1027
  7.342422    6.7677   6.3573   5.7924   5.7335   1.0923   1.0242   999.0000   999.0000   999.0000  999.0000    6.7456    5.3583    4.3199    0.1036
  7.361728    6.7890   6.3724   5.8056   5.7433   1.0944   1.0258   999.0000   999.0000   999.0000  999.0000    6.7603    5.3790    4.3290    0.1047
  7.380211    6.7347   6.3032   5.7693   5.7145   1.1033   1.0335   999.0000   999.0000   999.0000  999.0000    6.7335    5.4066    4.3253    0.1091
  7.397940    6.6153   6.1406   5.6962   5.6311   1.1134   1.0425   999.0000   999.0000   999.0000  999.0000    6.6937    5.4243    4.3131    0.1133
  7.414973    6.5378   6.0293   5.6499   5.5751   1.1206   1.0489   999.0000   999.0000   999.0000  999.0000    6.6697    5.4407    4.3080    0.1163
  7.431364    6.5083   5.9793   5.6348   5.5531   1.1245   1.0523   999.0000   999.0000   999.0000  999.0000    6.6641    5.4580    4.3116    0.1180
  7.447158    6.5321   6.0015   5.6514   5.5686   1.1248   1.0524   999.0000   999.0000   999.0000  999.0000    6.6755    5.4719    4.3209    0.1182
  7.462398    6.5941   6.0745   5.6891   5.6084   1.1230   1.0506   999.0000   999.0000   999.0000  999.0000    6.6972    5.4831    4.3329    0.1177
  7.477121    6.6148   6.0876   5.7045   5.6129   1.1227   1.0502   999.0000   999.0000   999.0000  999.0000    6.7171    5.4964    4.3432    0.1173
  7.491362    6.6099   6.0696   5.7044   5.5993   1.1223   1.0498   999.0000   999.0000   999.0000  999.0000    6.7227    5.4980    4.3469    0.1168
  7.505150    6.6109   6.0609   5.7078   5.5910   1.1218   1.0494   999.0000   999.0000   999.0000  999.0000    6.7296    5.5011    4.3516    0.1162
  7.518514    6.6255   6.0690   5.7195   5.5929   1.1213   1.0488   999.0000   999.0000   999.0000  999.0000    6.7435    5.5099    4.3597    0.1158
  7.531479    6.6424   6.0828   5.7317   5.5976   1.1207   1.0482   999.0000   999.0000   999.0000  999.0000    6.7551    5.5174    4.3670    0.1153
  7.544068    6.6640   6.1072   5.7454   5.6076   1.1200   1.0474   999.0000   999.0000   999.0000  999.0000    6.7652    5.5229    4.3732    0.1148
  7.556303    6.6975   6.1513   5.7651   5.6279   1.1189   1.0463   999.0000   999.0000   999.0000  999.0000    6.7783    5.5293    4.3796    0.1142
  7.568202    6.7253   6.1837   5.7812   5.6430   1.1195   1.0466   999.0000   999.0000   999.0000  999.0000    6.7919    5.5426    4.3875    0.1146
  7.579783    6.7103   6.1619   5.7714   5.6282   1.1215   1.0484   999.0000   999.0000   999.0000  999.0000    6.7896    5.5491    4.3878    0.1153
  7.591064    6.6914   6.1316   5.7597   5.6088   1.1233   1.0500   999.0000   999.0000   999.0000  999.0000    6.7845    5.5532    4.3878    0.1160
  7.602060    6.6775   6.1087   5.7504   5.5930   1.1247   1.0513   999.0000   999.0000   999.0000  999.0000    6.7776    5.5554    4.3881    0.1164
  7.628389    6.6770   6.1046   5.7502   5.5859   1.1259   1.0523   999.0000   999.0000   999.0000  999.0000    6.7655    5.5614    4.3946    0.1167
  7.653213    6.7488   6.1994   5.7966   5.6367   1.1243   1.0508   999.0000   999.0000   999.0000  999.0000    6.7742    5.5789    4.4144    0.1166
  7.676693    6.8561   6.3637   5.8601   5.7232   1.1188   1.0463   999.0000   999.0000   999.0000  999.0000    6.7695    5.5736    4.4279    0.1153
  7.698970    6.9001   6.4451   5.8840   5.7611   1.1167   1.0449   999.0000   999.0000   999.0000  999.0000    6.7454    5.5695    4.4325    0.1149
  7.728354    6.8506   6.3998   5.8558   5.7268   1.1185   1.0471   999.0000   999.0000   999.0000  999.0000    6.6888    5.5658    4.4304    0.1154
  7.755875    6.8391   6.3969   5.8390   5.7076   1.1207   1.0497   999.0000   999.0000   999.0000  999.0000    6.6449    5.5592    4.4249    0.1163
  7.778151    6.8467   6.4186   5.8464   5.7171   1.1223   1.0512   999.0000   999.0000   999.0000  999.0000    6.6267    5.5762    4.4363    0.1172
  7.845098    6.8535   6.4435   5.8528   5.7132   1.1277   1.0565   999.0000   999.0000   999.0000  999.0000    6.5540    5.6181    4.4659    0.1193
  7.903090    7.1951   6.7788   6.0806   5.9124   1.1423   1.0651   999.0000   999.0000   999.0000  999.0000    6.7456    5.8778    4.6166    0.1266
  7.954243    7.8471   7.4345   6.5077   6.3158   1.1636   1.0752   999.0000   999.0000   999.0000  999.0000    7.1571    6.3188    4.8763    0.1375
  8.000000    8.4896   8.0542   6.9458   6.7178   1.1859   1.0851   999.0000   999.0000   999.0000  999.0000    7.6224    6.7815    5.1541    0.1486
  8.041392    9.0737   8.6141   7.3530   7.0892   1.2075   1.0945   999.0000   999.0000   999.0000  999.0000    8.0680    7.2229    5.4258    0.1587
  8.079182    9.2287   8.7551   7.4594   7.1846   1.2163   1.0992   999.0000   999.0000   999.0000  999.0000    8.1938    7.3545    5.5031    0.1624
  8.146128    9.2319   8.7431   7.4848   7.2059   1.2230   1.1043   999.0000   999.0000   999.0000  999.0000    8.2257    7.4194    5.5438    0.1650
  8.204120    9.2056   8.7086   7.4783   7.2042   1.2291   1.1092   999.0000   999.0000   999.0000  999.0000    8.2136    7.4471    5.5587    0.1671
  8.255273    9.1206   8.6258   7.4457   7.1815   1.2322   1.1127   999.0000   999.0000   999.0000  999.0000    8.1629    7.4477    5.5582    0.1681
  8.301030    9.0939   8.5919   7.4415   7.1848   1.2404   1.1194   999.0000   999.0000   999.0000  999.0000    8.1548    7.4824    5.5717    0.1711
  8.352182    9.2673   8.7429   7.5719   7.3055   1.2564   1.1298   999.0000   999.0000   999.0000  999.0000    8.3222    7.6548    5.6648    0.1778
  8.397940    9.5105   8.9465   7.7396   7.4546   1.2788   1.1439   999.0000   999.0000   999.0000  999.0000    8.5565    7.8792    5.7842    0.1869
  8.439333    9.8707   9.2714   7.9609   7.6540   1.3029   1.1581   999.0000   999.0000   999.0000  999.0000    8.8594    8.1357    5.9175    0.1968
  8.477121   10.1400   9.4979   8.1155   7.7875   1.3267   1.1725   999.0000   999.0000   999.0000  999.0000    9.1034    8.3392    6.0037    0.2062
  8.544068   10.7360   9.9959   8.3429   7.9728   1.3817   1.2073   999.0000   999.0000   999.0000  999.0000    9.5612    8.6215    6.0419    0.2273
  8.602060   11.0646  10.2317   8.3941   8.0063   1.4386   1.2466   999.0000   999.0000   999.0000  999.0000    9.8074    8.7644    5.9782    0.2482
  8.653213   10.9500  10.0117   8.2267   7.8324   1.4856   1.2828   999.0000   999.0000   999.0000  999.0000    9.7724    8.7642    5.8532    0.2636
  8.698970   10.4704   9.4498   7.8733   7.5031   1.5222   1.3163   999.0000   999.0000   999.0000  999.0000    9.4600    8.6127    5.6681    0.2748
  8.740363    9.8521   8.7702   7.4537   7.1260   1.5598   1.3547   999.0000   999.0000   999.0000  999.0000    9.0368    8.4230    5.4649    0.2874
  8.778152    9.0874   7.9326   6.9600   6.6674   1.5879   1.3862   999.0000   999.0000   999.0000  999.0000    8.5129    8.1679    5.2326    0.2941
  8.812913    8.0966   6.8598   6.3791   6.1159   1.6121   1.4167   999.0000   999.0000   999.0000  999.0000    7.8847    7.8903    4.9900    0.2984
  8.845098    7.5965   6.2638   6.0813   5.7956   1.6299   1.4369   999.0000   999.0000   999.0000  999.0000    7.6115    7.8069    4.8708    0.3021
  8.875061    7.2439   5.8010   5.8398   5.5224   1.6503   1.4575   999.0000   999.0000   999.0000  999.0000    7.4102    7.7474    4.7563    0.3059
  8.903090    6.5606   5.0019   5.4334   5.0883   1.6603   1.4719   999.0000   999.0000   999.0000  999.0000    7.0216    7.5733    4.5674    0.3040
  8.929419    5.9797   4.3332   5.1081   4.7397   1.6686   1.4836   999.0000   999.0000   999.0000  999.0000    6.7202    7.4454    4.4301    0.3022
  8.954243    5.0178   3.2830   4.6069   4.2261   1.6776   1.5005   999.0000   999.0000   999.0000  999.0000    6.2053    7.2456    4.2362    0.2999
  9.000000    3.7612   1.7873   3.8942   3.4432   1.7136   1.5436   999.0000   999.0000   999.0000  999.0000    5.5727    7.0254    3.9343    0.3014
  9.041392    2.8247   0.6323   3.3442   2.8241   1.7423   1.5771   999.0000   999.0000   999.0000  999.0000    5.1224    6.8548    3.6765    0.3007
  9.079182    2.0355  -0.3481   2.9018   2.3104   1.7805   1.6198   999.0000   999.0000   999.0000  999.0000    4.8077    6.7936    3.4953    0.3043
  9.113943    1.3683  -1.2061   2.5349   1.8539   1.8161   1.6588   999.0000   999.0000   999.0000  999.0000    4.6084    6.7708    3.3516    0.3063
  9.146128    0.8241  -1.8980   2.2333   1.4841   1.8443   1.6902   999.0000   999.0000   999.0000  999.0000    4.4308    6.7520    3.2138    0.3067
  9.176091    0.2445  -2.6279   1.9293   1.0995   1.8802   1.7289   999.0000   999.0000   999.0000  999.0000    4.3011    6.7588    3.1039    0.3086
  9.204120   -0.4059  -3.4846   1.5985   0.6558   1.9250   1.7770   999.0000   999.0000   999.0000  999.0000    4.1854    6.7564    3.0077    0.3127
  9.230449   -1.0838  -4.3676   1.2646   0.2077   1.9763   1.8327   999.0000   999.0000   999.0000  999.0000    4.1053    6.7742    2.9242    0.3177
  9.255273   -1.6956  -5.1897   0.9802  -0.2073   2.0255   1.8864   999.0000   999.0000   999.0000  999.0000    4.0534    6.7825    2.8776    0.3234
  9.278753   -1.8132  -5.4453   0.9155  -0.3324   2.0333   1.8984   999.0000   999.0000   999.0000  999.0000    4.0009    6.7931    2.8216    0.3240
  9.301030   -1.4115  -4.9025   1.0700  -0.0599   1.9992   1.8639   999.0000   999.0000   999.0000  999.0000    3.9921    6.8212    2.7808    0.3182
  9.322219   -1.2966  -4.8092   1.1150  -0.0132   1.9893   1.8545   999.0000   999.0000   999.0000  999.0000    3.9826    6.8230    2.7589    0.3163
  9.342422   -1.6495  -5.2451   0.9611  -0.2322   2.0208   1.8874   999.0000   999.0000   999.0000  999.0000    3.9739    6.8529    2.7529    0.3202
  9.361728   -2.0946  -5.7576   0.7655  -0.4917   2.0609   1.9297   999.0000   999.0000   999.0000  999.0000    3.9617    6.8962    2.7391    0.3247
  9.380211   -1.8940  -5.5109   0.8423  -0.3745   2.0407   1.9092   999.0000   999.0000   999.0000  999.0000    3.9606    6.9056    2.7091    0.3202
  9.397940   -1.9870  -5.6431   0.7979  -0.4435   2.0491   1.9189   999.0000   999.0000   999.0000  999.0000    3.9523    6.9285    2.6857    0.3204
  9.414973   -2.3181  -6.0348   0.6494  -0.6413   2.0801   1.9520   999.0000   999.0000   999.0000  999.0000    3.9434    6.9727    2.6631    0.3232
  9.447158   -2.6862  -6.4806   0.4834  -0.8654   2.1159   1.9912   999.0000   999.0000   999.0000  999.0000    3.9430    7.0186    2.6364    0.3263
  9.477121   -3.0135  -6.8681   0.3333  -1.0602   2.1495   2.0284   999.0000   999.0000   999.0000  999.0000    3.9542    7.0445    2.6180    0.3294
  9.511884   -3.5453  -7.4698   0.0968  -1.3621   2.2061   2.0908   999.0000   999.0000   999.0000  999.0000    3.9591    7.1336    2.5834    0.3336
  9.544068   -3.8981  -7.8429  -0.0525  -1.5474   2.2454   2.1330   999.0000   999.0000   999.0000  999.0000    3.9610    7.2382    2.5569    0.3356
  9.574031   -4.5899  -8.5589  -0.3329  -1.8988   2.3199   2.2133   999.0000   999.0000   999.0000  999.0000    3.9631    7.3171    2.5536    0.3429
  9.602060   -5.0224  -8.9829  -0.4994  -2.1068   2.3570   2.2541   999.0000   999.0000   999.0000  999.0000    3.9951    7.3080    2.5740    0.3456
  9.628389   -5.1551  -9.1039  -0.5473  -2.1651   2.3705   2.2677   999.0000   999.0000   999.0000  999.0000    4.0387    7.3180    2.5899    0.3462
  9.653213   -5.3978  -9.3576  -0.6493  -2.2921   2.3950   2.2942   999.0000   999.0000   999.0000  999.0000    4.0358    7.3239    2.5778    0.3477
  9.676694   -5.3910  -9.3201  -0.6540  -2.2768   2.3940   2.2924   999.0000   999.0000   999.0000  999.0000    4.0417    7.3346    2.5637    0.3458
  9.698970   -5.4599  -9.3762  -0.6789  -2.3023   2.3997   2.2987   999.0000   999.0000   999.0000  999.0000    4.0449    7.3182    2.5677    0.3462
  9.720160   -5.7839  -9.7099  -0.8026  -2.4622   2.4347   2.3381   999.0000   999.0000   999.0000  999.0000    4.0340    7.3119    2.5729    0.3509
  9.740363   -5.9763  -9.9146  -0.8726  -2.5582   2.4535   2.3595   999.0000   999.0000   999.0000  999.0000    4.0417    7.3060    2.5858    0.3532
  9.759667   -5.9652  -9.9308  -0.8653  -2.5657   2.4523   2.3583   999.0000   999.0000   999.0000  999.0000    4.0540    7.3117    2.5843    0.3528
  9.778152   -5.6953  -9.6223  -0.7701  -2.4198   2.4230   2.3237   999.0000   999.0000   999.0000  999.0000    4.0654    7.3450    2.5559    0.3472
  9.795880   -5.8302  -9.7532  -0.8249  -2.4835   2.4375   2.3394   999.0000   999.0000   999.0000  999.0000    4.0680    7.3492    2.5545    0.3482
  9.812913   -5.9667  -9.8867  -0.8797  -2.5479   2.4529   2.3565   999.0000   999.0000   999.0000  999.0000    4.0723    7.3530    2.5559    0.3493
  9.829304   -6.0873 -10.0030  -0.9286  -2.6047   2.4668   2.3721   999.0000   999.0000   999.0000  999.0000    4.0781    7.3586    2.5565    0.3501
  9.845098   -6.1912 -10.0984  -0.9729  -2.6511   2.4791   2.3860   999.0000   999.0000   999.0000  999.0000    4.0803    7.3641    2.5544    0.3505
  9.860338   -6.3563 -10.2540  -1.0394  -2.7264   2.4974   2.4070   999.0000   999.0000   999.0000  999.0000    4.0802    7.3630    2.5560    0.3518
  9.875061   -6.5276 -10.4128  -1.1071  -2.8024   2.5164   2.4287   999.0000   999.0000   999.0000  999.0000    4.0824    7.3614    2.5584    0.3530
  9.889301   -6.6892 -10.5617  -1.1706  -2.8735   2.5347   2.4496   999.0000   999.0000   999.0000  999.0000    4.0844    7.3623    2.5599    0.3543
  9.903090   -6.8572 -10.7169  -1.2358  -2.9467   2.5539   2.4713   999.0000   999.0000   999.0000  999.0000    4.0850    7.3630    2.5614    0.3557
  9.916454   -7.0227 -10.8660  -1.2987  -3.0181   2.5725   2.4922   999.0000   999.0000   999.0000  999.0000    4.0883    7.3638    2.5647    0.3571
  9.929419   -7.1535 -10.9836  -1.3481  -3.0732   2.5883   2.5090   999.0000   999.0000   999.0000  999.0000    4.0972    7.3747    2.5648    0.3579
  9.942008   -7.2821 -11.0983  -1.3965  -3.1267   2.6038   2.5252   999.0000   999.0000   999.0000  999.0000    4.1069    7.3870    2.5631    0.3587
  9.954243   -7.4154 -11.2155  -1.4466  -3.1815   2.6197   2.5417   999.0000   999.0000   999.0000  999.0000    4.1176    7.3964    2.5608    0.3595
  9.966142   -7.5513 -11.3329  -1.4974  -3.2359   2.6361   2.5585   999.0000   999.0000   999.0000  999.0000    4.1295    7.4054    2.5587    0.3603
  9.977724   -7.7486 -11.5217  -1.5692  -3.3230   2.6617   2.5863   999.0000   999.0000   999.0000  999.0000    4.1369    7.4132    2.5586    0.3626
  9.989004   -7.9183 -11.6761  -1.6304  -3.3931   2.6812   2.6070   999.0000   999.0000   999.0000  999.0000    4.1444    7.4084    2.5618    0.3642
 10.000000   -8.0353 -11.7803  -1.6731  -3.4402   2.6953   2.6216   999.0000   999.0000   999.0000  999.0000    4.1528    7.4110    2.5595    0.3650
 10.010724   -8.1396 -11.8736  -1.7110  -3.4821   2.7081   2.6350   999.0000   999.0000   999.0000  999.0000    4.1605    7.4123    2.5580    0.3658
 10.021190   -8.2295 -11.9538  -1.7437  -3.5181   2.7191   2.6464   999.0000   999.0000   999.0000  999.0000    4.1672    7.4136    2.5560    0.3664
 10.031408   -8.3133 -12.0280  -1.7738  -3.5512   2.7293   2.6569   999.0000   999.0000   999.0000  999.0000    4.1736    7.4149    2.5548    0.3670
 10.041392   -8.3874 -12.0940  -1.8003  -3.5806   2.7383   2.6661   999.0000   999.0000   999.0000  999.0000    4.1796    7.4158    2.5534    0.3675
 10.051152   -8.4015 -12.0993  -1.8054  -3.5814   2.7381   2.6643   999.0000   999.0000   999.0000  999.0000    4.1907    7.4156    2.5491    0.3666
 10.060698   -8.4652 -12.1517  -1.8283  -3.6045   2.7483   2.6745   999.0000   999.0000   999.0000  999.0000    4.2040    7.4290    2.5475    0.3671
 10.070038   -8.5313 -12.2086  -1.8508  -3.6296   2.7577   2.6840   999.0000   999.0000   999.0000  999.0000    4.2171    7.4326    2.5513    0.3677
 10.079182   -8.5961 -12.2644  -1.8728  -3.6541   2.7670   2.6936   999.0000   999.0000   999.0000  999.0000    4.2305    7.4343    2.5560    0.3684
 10.088136   -8.6620 -12.3210  -1.8950  -3.6789   2.7766   2.7036   999.0000   999.0000   999.0000  999.0000    4.2444    7.4358    2.5617    0.3692
 10.096910   -8.7303 -12.3793  -1.9181  -3.7045   2.7865   2.7140   999.0000   999.0000   999.0000  999.0000    4.2593    7.4359    2.5679    0.3699
 10.105510   -8.7987 -12.4367  -1.9412  -3.7300   2.7965   2.7245   999.0000   999.0000   999.0000  999.0000    4.2736    7.4348    2.5747    0.3707
 10.113943   -8.8690 -12.4965  -1.9646  -3.7562   2.8070   2.7356   999.0000   999.0000   999.0000  999.0000    4.2889    7.4338    2.5821    0.3716
 10.122216   -8.9461 -12.5602  -1.9908  -3.7842   2.8186   2.7480   999.0000   999.0000   999.0000  999.0000    4.3050    7.4329    2.5899    0.3726
 10.130334   -9.0737 -12.6740  -2.0347  -3.8359   2.8389   2.7709   999.0000   999.0000   999.0000  999.0000    4.3159    7.4322    2.6012    0.3749
 10.138303   -9.1443 -12.7371  -2.0586  -3.8642   2.8461   2.7794   999.0000   999.0000   999.0000  999.0000    4.3199    7.4077    2.6088    0.3756
 10.146128   -9.2249 -12.8044  -2.0875  -3.8945   2.8560   2.7907   999.0000   999.0000   999.0000  999.0000    4.3216    7.3896    2.6130    0.3764
