#                                                     Mon Jul 29 20:38:09 2019
#          I------------------------------------------------------------------------------------------------------------------------I
#          I                                                                                                                        I
#          I      BC_GALAXEV  ---  MODEL PARAMETERS:   Generic file name for this model = cb2018_z0002_chab_hr_pmiles_ssp           I
#          I                                                                                                                        I
#          I      TRACKS: Padova 2013 + Marigo 2013, X=0.7508, Y=0.249, Z=0.0002                                                    I
#          I                                                                                                                        I
#          I      S.F.R.: SSP = Zero Length Burst at t = 0                                                                          I
#          I                                                                                                                        I
#          I                                                                                                                        I
#          I      I.M.F.: Lognormal + power law                                                                                     I
#          I                                                                      mass in      number                               I
#          I                                                  from m     to m     segment    of stars      c                        I
#          I                                        lognormal   0.10     1.00      0.4057      1.3076                               I
#          I                                          x=1.3     1.00   100.00      0.5943      0.1827                               I
#          I                                                                                                                        I
#          I                                                           totals      1.0000      1.4903  0.6710 Mo/star               I
#          I                                                                                                                        I
#          I                                                                                                                        I
#          I                                                                                                                        I
#          I                                                                                                                        I
#          I      LISTED: Rest frame properties                                                                                     I
#          I                                                                                                                        I
#          I                                                                                                                        I
#          I                              (C) 1995-2017 G. Bruzual A. & S. Charlot - All Rights Reserved                            I
#          I------------------------------------------------------------------------------------------------------------------------I
#
#    (1)        (2)      (3)      (4)      (5)      (6)      (7)       (8)        (9)        (10)      (11)      (12)      (13)      (14)      (15)
#
# Index_No.    WO-1:    WO-2:    WO-3:    WO-4:    GC-1:    4000A    DTT-Ca1    DTT-Ca2    DTT-Ca3   DTT-MgI     DM-04     DM-04     DM-04       BH:
# log-age    HdeltaA  HgammaA  HdeltaF  HgammaF  D(4000)    B4_VN   CaII8498   CaII8542   CaII8662   MgI8807   H8_3889   H9_3835  H10_3798     BH-HK
#   (yr)        (A)      (A)      (A)      (A)       .        .         (A)        (A)        (A)       (A)       (A)       (A)       (A)        (A)
  4.000000    6.4640   7.1894   5.2873   5.9092   1.0661   1.0244   999.0000   999.0000   999.0000  999.0000    6.0875    4.9735    3.4312    0.0860
  4.301030    6.4640   7.1895   5.2873   5.9092   1.0661   1.0244   999.0000   999.0000   999.0000  999.0000    6.0875    4.9735    3.4312    0.0860
  4.477121    6.4640   7.1894   5.2873   5.9092   1.0661   1.0244   999.0000   999.0000   999.0000  999.0000    6.0875    4.9735    3.4312    0.0860
  4.602060    6.4640   7.1894   5.2873   5.9092   1.0661   1.0244   999.0000   999.0000   999.0000  999.0000    6.0875    4.9735    3.4312    0.0860
  4.698970    6.4640   7.1894   5.2873   5.9092   1.0661   1.0244   999.0000   999.0000   999.0000  999.0000    6.0875    4.9735    3.4312    0.0860
  4.778151    6.4640   7.1894   5.2873   5.9092   1.0661   1.0244   999.0000   999.0000   999.0000  999.0000    6.0875    4.9735    3.4312    0.0860
  4.845098    6.4625   7.1883   5.2860   5.9083   1.0661   1.0243   999.0000   999.0000   999.0000  999.0000    6.0864    4.9722    3.4303    0.0860
  4.903090    6.4505   7.1783   5.2761   5.9007   1.0657   1.0242   999.0000   999.0000   999.0000  999.0000    6.0769    4.9619    3.4225    0.0858
  4.954243    6.4445   7.1733   5.2712   5.8967   1.0655   1.0241   999.0000   999.0000   999.0000  999.0000    6.0721    4.9568    3.4186    0.0857
  5.000000    6.4367   7.1667   5.2647   5.8917   1.0652   1.0240   999.0000   999.0000   999.0000  999.0000    6.0660    4.9500    3.4135    0.0856
  5.060698    6.4319   7.1626   5.2607   5.8885   1.0651   1.0240   999.0000   999.0000   999.0000  999.0000    6.0622    4.9458    3.4104    0.0855
  5.113944    6.4225   7.1548   5.2530   5.8825   1.0647   1.0238   999.0000   999.0000   999.0000  999.0000    6.0548    4.9377    3.4042    0.0854
  5.161368    6.4212   7.1537   5.2519   5.8817   1.0647   1.0238   999.0000   999.0000   999.0000  999.0000    6.0538    4.9366    3.4034    0.0854
  5.204120    6.4174   7.1506   5.2488   5.8793   1.0646   1.0238   999.0000   999.0000   999.0000  999.0000    6.0509    4.9334    3.4010    0.0854
  5.243038    6.4135   7.1473   5.2456   5.8768   1.0644   1.0237   999.0000   999.0000   999.0000  999.0000    6.0478    4.9300    3.3985    0.0853
  5.255272    6.4104   7.1447   5.2430   5.8748   1.0643   1.0237   999.0000   999.0000   999.0000  999.0000    6.0453    4.9273    3.3964    0.0853
  5.278754    6.4104   7.1448   5.2430   5.8748   1.0643   1.0237   999.0000   999.0000   999.0000  999.0000    6.0453    4.9273    3.3964    0.0853
  5.301030    6.4080   7.1428   5.2411   5.8733   1.0642   1.0237   999.0000   999.0000   999.0000  999.0000    6.0435    4.9253    3.3949    0.0852
  5.397940    6.3921   7.1296   5.2280   5.8631   1.0637   1.0235   999.0000   999.0000   999.0000  999.0000    6.0310    4.9116    3.3846    0.0850
  5.477121    6.3801   7.1192   5.2181   5.8551   1.0633   1.0233   999.0000   999.0000   999.0000  999.0000    6.0214    4.9013    3.3769    0.0849
  5.544068    6.3693   7.1101   5.2092   5.8481   1.0629   1.0232   999.0000   999.0000   999.0000  999.0000    6.0129    4.8920    3.3699    0.0847
  5.602060    6.3588   7.1012   5.2005   5.8412   1.0625   1.0230   999.0000   999.0000   999.0000  999.0000    6.0045    4.8830    3.3632    0.0846
  5.653213    6.3393   7.0848   5.1844   5.8286   1.0619   1.0228   999.0000   999.0000   999.0000  999.0000    5.9892    4.8663    3.3506    0.0843
  5.698970    6.3268   7.0740   5.1741   5.8203   1.0614   1.0226   999.0000   999.0000   999.0000  999.0000    5.9792    4.8556    3.3425    0.0841
  5.740363    6.3103   7.0600   5.1606   5.8094   1.0609   1.0224   999.0000   999.0000   999.0000  999.0000    5.9661    4.8414    3.3319    0.0839
  5.778151    6.2951   7.0471   5.1481   5.7995   1.0604   1.0222   999.0000   999.0000   999.0000  999.0000    5.9541    4.8285    3.3222    0.0837
  5.812913    6.2833   7.0369   5.1383   5.7916   1.0600   1.0221   999.0000   999.0000   999.0000  999.0000    5.9447    4.8184    3.3147    0.0836
  5.845098    6.2658   7.0221   5.1239   5.7802   1.0594   1.0219   999.0000   999.0000   999.0000  999.0000    5.9309    4.8034    3.3035    0.0833
  5.875061    6.2444   7.0040   5.1063   5.7662   1.0587   1.0216   999.0000   999.0000   999.0000  999.0000    5.9140    4.7851    3.2898    0.0830
  5.903090    6.2311   6.9925   5.0954   5.7573   1.0583   1.0214   999.0000   999.0000   999.0000  999.0000    5.9035    4.7738    3.2813    0.0829
  5.929419    6.2094   6.9740   5.0775   5.7430   1.0575   1.0212   999.0000   999.0000   999.0000  999.0000    5.8863    4.7553    3.2674    0.0826
  5.954243    6.1886   6.9562   5.0602   5.7293   1.0568   1.0209   999.0000   999.0000   999.0000  999.0000    5.8698    4.7374    3.2541    0.0823
  5.977724    6.1734   6.9431   5.0477   5.7191   1.0563   1.0207   999.0000   999.0000   999.0000  999.0000    5.8578    4.7245    3.2444    0.0821
  6.000000    6.1573   6.9294   5.0345   5.7085   1.0558   1.0205   999.0000   999.0000   999.0000  999.0000    5.8450    4.7108    3.2342    0.0819
  6.041393    6.1184   6.8956   5.0025   5.6823   1.0545   1.0201   999.0000   999.0000   999.0000  999.0000    5.8141    4.6778    3.2096    0.0814
  6.079181    6.0855   6.8663   4.9754   5.6595   1.0535   1.0196   999.0000   999.0000   999.0000  999.0000    5.7874    4.6498    3.1887    0.0809
  6.113944    6.0395   6.8264   4.9375   5.6284   1.0519   1.0191   999.0000   999.0000   999.0000  999.0000    5.7506    4.6105    3.1595    0.0803
  6.146128    5.9980   6.7901   4.9033   5.6002   1.0505   1.0185   999.0000   999.0000   999.0000  999.0000    5.7173    4.5751    3.1331    0.0798
  6.176091    5.9130   6.7306   4.8335   5.5579   1.0485   1.0181   999.0000   999.0000   999.0000  999.0000    5.6756    4.5047    3.0812    0.0787
  6.204120    5.8046   6.6594   4.7442   5.5083   1.0457   1.0173   999.0000   999.0000   999.0000  999.0000    5.6225    4.4142    3.0146    0.0774
  6.230449    5.7047   6.5869   4.6619   5.4552   1.0426   1.0163   999.0000   999.0000   999.0000  999.0000    5.5594    4.3301    2.9526    0.0761
  6.255272    5.6265   6.5176   4.5974   5.4007   1.0399   1.0152   999.0000   999.0000   999.0000  999.0000    5.4928    4.2641    2.9039    0.0751
  6.278754    5.5752   6.4919   4.5553   5.3852   1.0385   1.0149   999.0000   999.0000   999.0000  999.0000    5.4746    4.2217    2.8730    0.0744
  6.301030    5.3363   6.3039   4.3584   5.2433   1.0309   1.0121   999.0000   999.0000   999.0000  999.0000    5.3035    4.0207    2.7258    0.0713
  6.322219    5.3165   6.2986   4.3423   5.2418   1.0303   1.0120   999.0000   999.0000   999.0000  999.0000    5.2986    4.0048    2.7144    0.0711
  6.342422    5.1771   6.1862   4.2274   5.1562   1.0258   1.0103   999.0000   999.0000   999.0000  999.0000    5.1955    3.8885    2.6299    0.0693
  6.361728    5.4138   6.3836   4.4228   5.3078   1.0331   1.0130   999.0000   999.0000   999.0000  999.0000    5.3769    4.0883    2.7757    0.0723
  6.380211    6.4076   7.2106   5.2450   5.9447   1.0657   1.0249   999.0000   999.0000   999.0000  999.0000    6.1465    4.9392    3.4086    0.0853
  6.397940    7.1681   7.8364   5.8769   6.4266   1.0921   1.0342   999.0000   999.0000   999.0000  999.0000    6.7411    5.6062    3.9193    0.0952
  6.414973    8.4749   8.8979   6.9679   7.2448   1.1414   1.0508   999.0000   999.0000   999.0000  999.0000    7.7749    6.7853    4.8544    0.1126
  6.431364    9.4101   9.6511   7.7527   7.8264   1.1797   1.0630   999.0000   999.0000   999.0000  999.0000    8.5289    7.6558    5.5730    0.1251
  6.447158   10.1609  10.2535   8.3855   8.2926   1.2126   1.0732   999.0000   999.0000   999.0000  999.0000    9.1448    8.3716    6.1830    0.1353
  6.462398   10.2230  10.2536   8.4675   8.3175   1.2191   1.0748   999.0000   999.0000   999.0000  999.0000    9.1955    8.4820    6.3178    0.1364
  6.477121    9.3871   9.3555   7.9005   7.7363   1.1992   1.0671   999.0000   999.0000   999.0000  999.0000    8.4993    7.9100    6.0080    0.1263
  6.491362    5.4879   4.2947   4.8535   4.2958   1.3283   1.1854   999.0000   999.0000   999.0000  999.0000    6.1588    5.9991    4.1755    0.1571
  6.505150    4.1592   2.7067   3.8590   3.2486   1.3769   1.2331   999.0000   999.0000   999.0000  999.0000    5.2749    5.2456    3.5190    0.1669
  6.518514    4.2790   2.9870   3.9477   3.4212   1.3432   1.2067   999.0000   999.0000   999.0000  999.0000    5.1953    5.1144    3.5744    0.1545
  6.531479    4.9724   3.9159   4.5819   4.0813   1.2819   1.1602   999.0000   999.0000   999.0000  999.0000    5.5581    5.4083    4.0329    0.1368
  6.544068    5.3291   4.4646   4.9359   4.5096   1.2450   1.1325   999.0000   999.0000   999.0000  999.0000    5.7732    5.5694    4.3003    0.1229
  6.556303    5.8618   5.2280   5.3475   5.0126   1.2125   1.1045   999.0000   999.0000   999.0000  999.0000    6.0289    5.7695    4.5421    0.1141
  6.568202    6.2150   5.7425   5.6081   5.3431   1.1923   1.0874   999.0000   999.0000   999.0000  999.0000    6.1694    5.8726    4.6759    0.1091
  6.579783    6.3450   5.9531   5.7456   5.5022   1.1788   1.0776   999.0000   999.0000   999.0000  999.0000    6.2358    5.9231    4.7719    0.1043
  6.591064    6.4711   6.0282   5.8000   5.5303   1.1906   1.0840   999.0000   999.0000   999.0000  999.0000    6.3631    6.0445    4.7936    0.1097
  6.602060    6.7481   6.4447   6.0131   5.8040   1.1725   1.0686   999.0000   999.0000   999.0000  999.0000    6.4924    6.1697    4.9105    0.1067
  6.612784    7.1715   7.0404   6.3471   6.2086   1.1538   1.0527   999.0000   999.0000   999.0000  999.0000    6.7124    6.3518    5.0944    0.1022
  6.623249    7.3716   7.2699   6.4926   6.3629   1.1541   1.0516   999.0000   999.0000   999.0000  999.0000    6.8588    6.4788    5.1764    0.1032
  6.633469    7.5239   7.4287   6.5991   6.4673   1.1570   1.0525   999.0000   999.0000   999.0000  999.0000    6.9817    6.5861    5.2375    0.1048
  6.643453    7.6147   7.5258   6.6626   6.5309   1.1583   1.0528   999.0000   999.0000   999.0000  999.0000    7.0528    6.6482    5.2737    0.1057
  6.653213    7.6595   7.5718   6.6930   6.5605   1.1593   1.0531   999.0000   999.0000   999.0000  999.0000    7.0887    6.6796    5.2909    0.1062
  6.662758    7.7680   7.6833   6.7678   6.6331   1.1617   1.0539   999.0000   999.0000   999.0000  999.0000    7.1762    6.7558    5.3336    0.1075
  6.672098    7.8565   7.7737   6.8291   6.6925   1.1637   1.0547   999.0000   999.0000   999.0000  999.0000    7.2480    6.8184    5.3688    0.1085
  6.681241    7.9630   7.8826   6.9029   6.7640   1.1662   1.0556   999.0000   999.0000   999.0000  999.0000    7.3344    6.8938    5.4114    0.1098
  6.690196    8.0583   7.9806   6.9690   6.8283   1.1683   1.0563   999.0000   999.0000   999.0000  999.0000    7.4114    6.9608    5.4496    0.1109
  6.698970    8.0903   8.0139   6.9911   6.8499   1.1690   1.0566   999.0000   999.0000   999.0000  999.0000    7.4369    6.9829    5.4623    0.1113
  6.720160    8.2334   8.1593   7.0894   6.9445   1.1726   1.0580   999.0000   999.0000   999.0000  999.0000    7.5542    7.0846    5.5194    0.1130
  6.740363    8.3790   8.3082   7.1902   7.0419   1.1761   1.0593   999.0000   999.0000   999.0000  999.0000    7.6733    7.1884    5.5785    0.1148
  6.759668    8.5967   8.5293   7.3411   7.1869   1.1818   1.0615   999.0000   999.0000   999.0000  999.0000    7.8532    7.3455    5.6678    0.1175
  6.778151    8.8129   8.7508   7.4913   7.3323   1.1872   1.0635   999.0000   999.0000   999.0000  999.0000    8.0311    7.5005    5.7575    0.1202
  6.795880    8.9720   8.9132   7.6017   7.4388   1.1915   1.0651   999.0000   999.0000   999.0000  999.0000    8.1628    7.6152    5.8239    0.1222
  6.812913    9.1343   9.0791   7.7143   7.5475   1.1958   1.0668   999.0000   999.0000   999.0000  999.0000    8.2972    7.7323    5.8920    0.1242
  6.829304    9.3486   9.2998   7.8640   7.6928   1.2014   1.0688   999.0000   999.0000   999.0000  999.0000    8.4741    7.8865    5.9834    0.1268
  6.845098    9.4580   9.4114   7.9404   7.7664   1.2043   1.0699   999.0000   999.0000   999.0000  999.0000    8.5647    7.9656    6.0306    0.1281
  6.860338    9.5653   9.5241   8.0158   7.8409   1.2068   1.0708   999.0000   999.0000   999.0000  999.0000    8.6519    8.0414    6.0766    0.1294
  6.875061    9.6786   9.6427   8.0952   7.9191   1.2097   1.0718   999.0000   999.0000   999.0000  999.0000    8.7444    8.1219    6.1252    0.1307
  6.903090    9.9671   9.9449   8.2976   8.1184   1.2170   1.0743   999.0000   999.0000   999.0000  999.0000    8.9805    8.3274    6.2503    0.1341
  6.929419   10.0394  10.0203   8.3476   8.1674   1.2189   1.0750   999.0000   999.0000   999.0000  999.0000    9.0393    8.3784    6.2810    0.1350
  6.954243   10.0511  10.0306   8.3547   8.1734   1.2196   1.0753   999.0000   999.0000   999.0000  999.0000    9.0494    8.3871    6.2853    0.1352
  6.977724   10.0520  10.0297   8.3543   8.1719   1.2199   1.0755   999.0000   999.0000   999.0000  999.0000    9.0508    8.3881    6.2848    0.1353
  7.000000    9.9137   9.8841   8.2560   8.0748   1.2165   1.0744   999.0000   999.0000   999.0000  999.0000    8.9366    8.2883    6.2230    0.1337
  7.021189    9.6139   9.5682   8.0443   7.8653   1.2092   1.0719   999.0000   999.0000   999.0000  999.0000    8.6907    8.0737    6.0919    0.1303
  7.041393    9.2386   9.1756   7.7805   7.6057   1.2001   1.0687   999.0000   999.0000   999.0000  999.0000    8.3819    7.8042    5.9302    0.1258
  7.060698    9.1325   9.0649   7.7056   7.5323   1.1975   1.0678   999.0000   999.0000   999.0000  999.0000    8.2939    7.7273    5.8843    0.1246
  7.079181    9.1839   9.1154   7.7407   7.5651   1.1991   1.0685   999.0000   999.0000   999.0000  999.0000    8.3369    7.7648    5.9056    0.1253
  7.096910    9.2054   9.1352   7.7548   7.5777   1.2000   1.0689   999.0000   999.0000   999.0000  999.0000    8.3550    7.7807    5.9141    0.1256
  7.113944    9.0445   8.9707   7.6417   7.4687   1.1957   1.0673   999.0000   999.0000   999.0000  999.0000    8.2203    7.6629    5.8444    0.1237
  7.130334    8.9139   8.8366   7.5502   7.3799   1.1925   1.0662   999.0000   999.0000   999.0000  999.0000    8.1125    7.5684    5.7888    0.1221
  7.146128    8.8764   8.7976   7.5237   7.3538   1.1917   1.0659   999.0000   999.0000   999.0000  999.0000    8.0819    7.5415    5.7728    0.1217
  7.161368    8.9789   8.9016   7.5947   7.4218   1.1945   1.0670   999.0000   999.0000   999.0000  999.0000    8.1675    7.6160    5.8158    0.1230
  7.176091    8.9752   8.8973   7.5916   7.4184   1.1946   1.0671   999.0000   999.0000   999.0000  999.0000    8.1648    7.6134    5.8138    0.1230
  7.204120    8.5080   8.4236   7.2657   7.1063   1.1822   1.0623   999.0000   999.0000   999.0000  999.0000    7.7747    7.2725    5.6167    0.1172
  7.230449    8.3187   8.2314   7.1335   6.9797   1.1774   1.0605   999.0000   999.0000   999.0000  999.0000    7.6164    7.1343    5.5374    0.1149
  7.255272    8.5049   8.4197   7.2615   7.1027   1.1823   1.0624   999.0000   999.0000   999.0000  999.0000    7.7688    7.2672    5.6123    0.1172
  7.278754    8.5944   8.5097   7.3224   7.1612   1.1847   1.0634   999.0000   999.0000   999.0000  999.0000    7.8412    7.3305    5.6476    0.1184
  7.301030    8.3083   8.2174   7.1231   6.9687   1.1777   1.0608   999.0000   999.0000   999.0000  999.0000    7.6057    7.1248    5.5295    0.1149
  7.322219    8.0489   7.9513   6.9423   6.7933   1.1717   1.0586   999.0000   999.0000   999.0000  999.0000    7.3931    6.9392    5.4234    0.1118
  7.342422    7.9564   7.8562   6.8773   6.7302   1.1696   1.0579   999.0000   999.0000   999.0000  999.0000    7.3171    6.8724    5.3852    0.1108
  7.361728    7.8993   7.7970   6.8369   6.6908   1.1685   1.0575   999.0000   999.0000   999.0000  999.0000    7.2702    6.8311    5.3613    0.1102
  7.380211    7.8828   7.7780   6.8234   6.6768   1.1684   1.0576   999.0000   999.0000   999.0000  999.0000    7.2554    6.8175    5.3523    0.1101
  7.397940    7.8963   7.7883   6.8291   6.6812   1.1693   1.0581   999.0000   999.0000   999.0000  999.0000    7.2635    6.8234    5.3534    0.1104
  7.414973    7.8940   7.7844   6.8242   6.6763   1.1696   1.0584   999.0000   999.0000   999.0000  999.0000    7.2579    6.8173    5.3480    0.1106
  7.431364    7.8855   7.7730   6.8151   6.6667   1.1699   1.0586   999.0000   999.0000   999.0000  999.0000    7.2479    6.8076    5.3405    0.1106
  7.447158    7.8823   7.7673   6.8100   6.6609   1.1703   1.0589   999.0000   999.0000   999.0000  999.0000    7.2426    6.8021    5.3356    0.1107
  7.462398    7.8990   7.7802   6.8210   6.6691   1.1715   1.0596   999.0000   999.0000   999.0000  999.0000    7.2610    6.8186    5.3427    0.1112
  7.477121    7.8993   7.7766   6.8204   6.6662   1.1723   1.0601   999.0000   999.0000   999.0000  999.0000    7.2657    6.8229    5.3430    0.1114
  7.491362    7.8695   7.7447   6.8000   6.6453   1.1722   1.0602   999.0000   999.0000   999.0000  999.0000    7.2452    6.8057    5.3319    0.1112
  7.505150    7.8361   7.7090   6.7782   6.6221   1.1720   1.0602   999.0000   999.0000   999.0000  999.0000    7.2237    6.7885    5.3211    0.1109
  7.518514    7.8082   7.6789   6.7602   6.6026   1.1721   1.0604   999.0000   999.0000   999.0000  999.0000    7.2069    6.7753    5.3124    0.1107
  7.531479    7.7944   7.6609   6.7486   6.5897   1.1726   1.0609   999.0000   999.0000   999.0000  999.0000    7.1991    6.7678    5.3054    0.1109
  7.544068    7.8257   7.6875   6.7653   6.6047   1.1742   1.0619   999.0000   999.0000   999.0000  999.0000    7.2252    6.7880    5.3129    0.1116
  7.556303    7.8564   7.7120   6.7806   6.6178   1.1761   1.0630   999.0000   999.0000   999.0000  999.0000    7.2508    6.8076    5.3193    0.1124
  7.568202    7.8803   7.7331   6.7942   6.6299   1.1772   1.0636   999.0000   999.0000   999.0000  999.0000    7.2711    6.8240    5.3259    0.1129
  7.579783    7.8832   7.7332   6.7955   6.6294   1.1777   1.0639   999.0000   999.0000   999.0000  999.0000    7.2753    6.8279    5.3269    0.1131
  7.591064    7.8914   7.7386   6.8009   6.6326   1.1782   1.0642   999.0000   999.0000   999.0000  999.0000    7.2839    6.8357    5.3305    0.1133
  7.602060    7.9055   7.7497   6.8104   6.6396   1.1788   1.0644   999.0000   999.0000   999.0000  999.0000    7.2969    6.8474    5.3366    0.1135
  7.628389    7.9686   7.8049   6.8538   6.6757   1.1809   1.0653   999.0000   999.0000   999.0000  999.0000    7.3513    6.8953    5.3631    0.1144
  7.653213    8.0915   7.9236   6.9380   6.7529   1.1843   1.0667   999.0000   999.0000   999.0000  999.0000    7.4532    6.9843    5.4128    0.1160
  7.676693    8.1451   7.9740   6.9724   6.7841   1.1863   1.0676   999.0000   999.0000   999.0000  999.0000    7.4971    7.0221    5.4319    0.1168
  7.698970    8.1304   7.9566   6.9628   6.7722   1.1865   1.0677   999.0000   999.0000   999.0000  999.0000    7.4884    7.0161    5.4278    0.1167
  7.728354    8.2221   8.0421   7.0218   6.8255   1.1900   1.0694   999.0000   999.0000   999.0000  999.0000    7.5656    7.0823    5.4618    0.1181
  7.755875    8.4061   8.2198   7.1375   6.9338   1.1967   1.0727   999.0000   999.0000   999.0000  999.0000    7.7127    7.2070    5.5232    0.1212
  7.778151    8.3812   8.1868   7.1167   6.9088   1.1977   1.0734   999.0000   999.0000   999.0000  999.0000    7.6951    7.1926    5.5102    0.1213
  7.845098    8.5612   8.3514   7.2397   7.0154   1.2051   1.0768   999.0000   999.0000   999.0000  999.0000    7.8602    7.3392    5.5868    0.1242
  7.903090    8.7266   8.4988   7.3369   7.1006   1.2127   1.0806   999.0000   999.0000   999.0000  999.0000    7.9952    7.4522    5.6380    0.1273
  7.954243    8.7320   8.4894   7.3351   7.0894   1.2157   1.0825   999.0000   999.0000   999.0000  999.0000    8.0125    7.4683    5.6375    0.1282
  8.000000    8.6783   8.4225   7.2961   7.0382   1.2178   1.0837   999.0000   999.0000   999.0000  999.0000    7.9820    7.4448    5.6189    0.1282
  8.041392    8.7602   8.4936   7.3404   7.0774   1.2220   1.0860   999.0000   999.0000   999.0000  999.0000    8.0468    7.4964    5.6397    0.1300
  8.079182    8.7800   8.4857   7.3468   7.0629   1.2271   1.0886   999.0000   999.0000   999.0000  999.0000    8.0791    7.5260    5.6492    0.1310
  8.146128    8.8126   8.5049   7.3526   7.0646   1.2311   1.0914   999.0000   999.0000   999.0000  999.0000    8.1064    7.5434    5.6392    0.1328
  8.204120    8.8642   8.5454   7.3839   7.0884   1.2347   1.0933   999.0000   999.0000   999.0000  999.0000    8.1577    7.5859    5.6570    0.1341
  8.255273    8.8745   8.5309   7.3688   7.0632   1.2394   1.0964   999.0000   999.0000   999.0000  999.0000    8.1651    7.5822    5.6351    0.1356
  8.301030    8.9617   8.6131   7.4266   7.1116   1.2439   1.0983   999.0000   999.0000   999.0000  999.0000    8.2472    7.6545    5.6709    0.1371
  8.352182    9.0554   8.6936   7.4708   7.1520   1.2497   1.1018   999.0000   999.0000   999.0000  999.0000    8.3196    7.7076    5.6849    0.1396
  8.397940    9.0616   8.6888   7.4667   7.1404   1.2532   1.1040   999.0000   999.0000   999.0000  999.0000    8.3314    7.7186    5.6778    0.1407
  8.439333    9.0913   8.6926   7.4720   7.1347   1.2574   1.1068   999.0000   999.0000   999.0000  999.0000    8.3568    7.7367    5.6705    0.1423
  8.477121    9.1348   8.7301   7.4978   7.1544   1.2597   1.1078   999.0000   999.0000   999.0000  999.0000    8.3932    7.7660    5.6814    0.1432
  8.544068    9.2205   8.7954   7.5225   7.1711   1.2682   1.1128   999.0000   999.0000   999.0000  999.0000    8.4507    7.8034    5.6747    0.1461
  8.602060    9.3156   8.8885   7.5552   7.2053   1.2750   1.1162   999.0000   999.0000   999.0000  999.0000    8.5082    7.8322    5.6729    0.1481
  8.653213    9.4877   9.0469   7.6336   7.2782   1.2852   1.1211   999.0000   999.0000   999.0000  999.0000    8.6286    7.9107    5.7003    0.1512
  8.698970    9.7005   9.2444   7.7316   7.3680   1.2987   1.1274   999.0000   999.0000   999.0000  999.0000    8.7784    8.0105    5.7315    0.1553
  8.740363    9.7825   9.3124   7.7363   7.3744   1.3092   1.1337   999.0000   999.0000   999.0000  999.0000    8.8187    8.0252    5.7011    0.1585
  8.778152    9.7597   9.3006   7.7106   7.3601   1.3091   1.1340   999.0000   999.0000   999.0000  999.0000    8.7889    7.9961    5.6762    0.1585
  8.812913    9.7379   9.2748   7.6817   7.3346   1.3107   1.1353   999.0000   999.0000   999.0000  999.0000    8.7621    7.9697    5.6478    0.1590
  8.845098    9.8120   9.3454   7.7241   7.3772   1.3136   1.1367   999.0000   999.0000   999.0000  999.0000    8.8281    8.0172    5.6747    0.1599
  8.875061    9.7068   9.2339   7.5743   7.2287   1.3261   1.1455   999.0000   999.0000   999.0000  999.0000    8.6825    7.8750    5.5009    0.1640
  8.903090    9.7956   9.3329   7.6496   7.3040   1.3259   1.1441   999.0000   999.0000   999.0000  999.0000    8.7728    7.9510    5.5650    0.1637
  8.929419    9.8358   9.3821   7.6835   7.3437   1.3243   1.1428   999.0000   999.0000   999.0000  999.0000    8.8103    7.9808    5.5929    0.1633
  8.954243    9.7255   9.2534   7.5522   7.2125   1.3313   1.1488   999.0000   999.0000   999.0000  999.0000    8.6740    7.8498    5.4520    0.1656
  9.000000    9.3896   8.8739   7.2360   6.8907   1.3425   1.1588   999.0000   999.0000   999.0000  999.0000    8.3296    7.5511    5.1672    0.1677
  9.041392    9.1519   8.4831   6.9999   6.6077   1.3546   1.1699   999.0000   999.0000   999.0000  999.0000    8.0500    7.3150    4.9599    0.1692
  9.079182    8.8173   8.0869   6.7072   6.3118   1.3641   1.1797   999.0000   999.0000   999.0000  999.0000    7.8031    7.0829    4.7392    0.1705
  9.113943    8.2833   7.5165   6.3277   5.9228   1.3684   1.1860   999.0000   999.0000   999.0000  999.0000    7.4521    6.8026    4.5094    0.1683
  9.146128    7.1251   6.1733   5.5276   5.0500   1.3869   1.2064   999.0000   999.0000   999.0000  999.0000    6.8346    6.2879    4.0898    0.1662
  9.176091    6.9525   6.0192   5.4293   4.9577   1.3825   1.2043   999.0000   999.0000   999.0000  999.0000    6.7245    6.2075    4.0404    0.1643
  9.204120    6.6808   5.7017   5.2454   4.7510   1.3861   1.2083   999.0000   999.0000   999.0000  999.0000    6.5667    6.0745    3.9495    0.1625
  9.230449    6.5491   5.5242   5.1633   4.6478   1.3871   1.2100   999.0000   999.0000   999.0000  999.0000    6.5165    6.0127    3.9103    0.1629
  9.255273    6.4280   5.3544   5.0674   4.5380   1.3900   1.2138   999.0000   999.0000   999.0000  999.0000    6.4442    5.9183    3.8291    0.1652
  9.278753    6.2704   5.1636   4.9431   4.4026   1.3945   1.2185   999.0000   999.0000   999.0000  999.0000    6.3064    5.8012    3.7206    0.1663
  9.301030    6.1279   5.0102   4.8429   4.2947   1.3971   1.2207   999.0000   999.0000   999.0000  999.0000    6.1876    5.7095    3.6473    0.1657
  9.322219    5.9944   4.8779   4.7594   4.2016   1.3970   1.2200   999.0000   999.0000   999.0000  999.0000    6.0937    5.6369    3.6099    0.1630
  9.342422    5.8599   4.7424   4.6642   4.0994   1.3977   1.2204   999.0000   999.0000   999.0000  999.0000    5.9857    5.5468    3.5540    0.1606
  9.361728    5.7348   4.6138   4.5653   3.9994   1.4004   1.2228   999.0000   999.0000   999.0000  999.0000    5.8731    5.4497    3.4790    0.1599
  9.380211    5.5713   4.4454   4.4343   3.8722   1.4041   1.2266   999.0000   999.0000   999.0000  999.0000    5.7244    5.3176    3.3728    0.1600
  9.397940    5.3044   4.1382   4.2369   3.6637   1.4108   1.2334   999.0000   999.0000   999.0000  999.0000    5.5238    5.1458    3.2354    0.1602
  9.414973    5.1271   3.9450   4.1094   3.5344   1.4134   1.2368   999.0000   999.0000   999.0000  999.0000    5.3848    5.0306    3.1466    0.1599
  9.447158    5.0434   3.8659   4.0492   3.4791   1.4135   1.2376   999.0000   999.0000   999.0000  999.0000    5.3034    4.9685    3.0990    0.1594
  9.477121    4.8630   3.6744   3.9132   3.3458   1.4188   1.2430   999.0000   999.0000   999.0000  999.0000    5.1454    4.8403    2.9875    0.1606
  9.511884    4.7419   3.5625   3.8197   3.2621   1.4212   1.2457   999.0000   999.0000   999.0000  999.0000    5.0246    4.7381    2.9021    0.1611
  9.544068    4.6194   3.4265   3.7444   3.1823   1.4217   1.2469   999.0000   999.0000   999.0000  999.0000    4.9507    4.6785    2.8655    0.1601
  9.574031    4.5133   3.3155   3.6795   3.1166   1.4211   1.2472   999.0000   999.0000   999.0000  999.0000    4.8837    4.6255    2.8339    0.1589
  9.602060    4.3690   3.1540   3.5898   3.0218   1.4220   1.2490   999.0000   999.0000   999.0000  999.0000    4.7948    4.5599    2.7913    0.1577
  9.628389    4.2382   3.0164   3.5101   2.9409   1.4211   1.2493   999.0000   999.0000   999.0000  999.0000    4.7076    4.4962    2.7540    0.1561
  9.653213    4.0621   2.8272   3.4014   2.8293   1.4201   1.2500   999.0000   999.0000   999.0000  999.0000    4.5924    4.4070    2.7026    0.1540
  9.676694    3.9129   2.6705   3.3098   2.7365   1.4188   1.2502   999.0000   999.0000   999.0000  999.0000    4.4894    4.3301    2.6600    0.1520
  9.698970    3.7512   2.4969   3.2097   2.6339   1.4185   1.2513   999.0000   999.0000   999.0000  999.0000    4.3821    4.2494    2.6122    0.1502
  9.720160    3.5806   2.3096   3.1045   2.5239   1.4190   1.2532   999.0000   999.0000   999.0000  999.0000    4.2686    4.1692    2.5621    0.1486
  9.740363    3.4257   2.1370   3.0090   2.4235   1.4199   1.2552   999.0000   999.0000   999.0000  999.0000    4.1669    4.0975    2.5154    0.1473
  9.759667    3.2866   1.9803   2.9235   2.3325   1.4207   1.2570   999.0000   999.0000   999.0000  999.0000    4.0777    4.0339    2.4725    0.1463
  9.778152    3.1638   1.8388   2.8476   2.2506   1.4213   1.2588   999.0000   999.0000   999.0000  999.0000    4.0012    3.9765    2.4334    0.1456
  9.795880    3.0600   1.7171   2.7826   2.1793   1.4220   1.2604   999.0000   999.0000   999.0000  999.0000    3.9398    3.9247    2.3988    0.1453
  9.812913    2.9607   1.6021   2.7204   2.1119   1.4227   1.2620   999.0000   999.0000   999.0000  999.0000    3.8840    3.8744    2.3647    0.1452
  9.829304    2.8593   1.4834   2.6570   2.0428   1.4237   1.2639   999.0000   999.0000   999.0000  999.0000    3.8274    3.8239    2.3289    0.1452
  9.845098    2.7685   1.3742   2.6016   1.9813   1.4250   1.2659   999.0000   999.0000   999.0000  999.0000    3.7793    3.7807    2.2967    0.1457
  9.860338    2.6752   1.2670   2.5449   1.9208   1.4260   1.2677   999.0000   999.0000   999.0000  999.0000    3.7297    3.7351    2.2639    0.1459
  9.875061    2.5863   1.1634   2.4907   1.8616   1.4271   1.2694   999.0000   999.0000   999.0000  999.0000    3.6809    3.6909    2.2319    0.1461
  9.889301    2.5084   1.0704   2.4430   1.8087   1.4284   1.2713   999.0000   999.0000   999.0000  999.0000    3.6387    3.6538    2.2030    0.1465
  9.903090    2.4415   0.9925   2.4022   1.7637   1.4293   1.2727   999.0000   999.0000   999.0000  999.0000    3.6010    3.6206    2.1787    0.1466
  9.916454    2.3867   0.9265   2.3699   1.7286   1.4305   1.2745   999.0000   999.0000   999.0000  999.0000    3.5761    3.5979    2.1589    0.1474
  9.929419    2.3356   0.8650   2.3398   1.6962   1.4320   1.2763   999.0000   999.0000   999.0000  999.0000    3.5540    3.5776    2.1413    0.1483
  9.942008    2.2880   0.8077   2.3118   1.6657   1.4334   1.2781   999.0000   999.0000   999.0000  999.0000    3.5338    3.5589    2.1251    0.1491
  9.954243    2.2447   0.7530   2.2863   1.6367   1.4350   1.2800   999.0000   999.0000   999.0000  999.0000    3.5159    3.5438    2.1094    0.1501
  9.966142    2.2081   0.7037   2.2647   1.6114   1.4367   1.2820   999.0000   999.0000   999.0000  999.0000    3.5023    3.5335    2.0956    0.1511
  9.977724    2.1722   0.6556   2.2435   1.5867   1.4383   1.2838   999.0000   999.0000   999.0000  999.0000    3.4886    3.5231    2.0820    0.1520
  9.989004    2.1413   0.6163   2.2256   1.5666   1.4392   1.2851   999.0000   999.0000   999.0000  999.0000    3.4764    3.5134    2.0699    0.1527
 10.000000    2.1074   0.5546   2.2089   1.5366   1.4437   1.2886   999.0000   999.0000   999.0000  999.0000    3.4662    3.5085    2.0635    0.1534
 10.010724    2.0846   0.5067   2.1996   1.5151   1.4479   1.2919   999.0000   999.0000   999.0000  999.0000    3.4622    3.5095    2.0609    0.1540
 10.021190    2.0813   0.4850   2.2011   1.5075   1.4508   1.2940   999.0000   999.0000   999.0000  999.0000    3.4675    3.5188    2.0633    0.1544
 10.031408    2.0922   0.4840   2.2104   1.5105   1.4525   1.2950   999.0000   999.0000   999.0000  999.0000    3.4791    3.5345    2.0681    0.1547
 10.041392    2.1200   0.5080   2.2293   1.5262   1.4528   1.2950   999.0000   999.0000   999.0000  999.0000    3.4983    3.5572    2.0763    0.1547
 10.051152    2.1653   0.5568   2.2579   1.5543   1.4517   1.2937   999.0000   999.0000   999.0000  999.0000    3.5247    3.5866    2.0885    0.1544
 10.060698    2.2354   0.6389   2.3005   1.5992   1.4492   1.2911   999.0000   999.0000   999.0000  999.0000    3.5619    3.6252    2.1081    0.1539
 10.070038    2.3264   0.7519   2.3550   1.6602   1.4450   1.2871   999.0000   999.0000   999.0000  999.0000    3.6081    3.6715    2.1334    0.1531
 10.079182    2.4382   0.8959   2.4214   1.7370   1.4391   1.2818   999.0000   999.0000   999.0000  999.0000    3.6629    3.7255    2.1640    0.1520
 10.088136    2.4833   0.9048   2.4612   1.7556   1.4420   1.2836   999.0000   999.0000   999.0000  999.0000    3.7364    3.7916    2.2038    0.1532
 10.096910    2.5155   0.8879   2.4946   1.7617   1.4472   1.2872   999.0000   999.0000   999.0000  999.0000    3.8088    3.8564    2.2429    0.1550
 10.105510    2.5541   0.8820   2.5303   1.7723   1.4518   1.2903   999.0000   999.0000   999.0000  999.0000    3.8806    3.9207    2.2818    0.1566
 10.113943    2.6003   0.8876   2.5693   1.7880   1.4557   1.2929   999.0000   999.0000   999.0000  999.0000    3.9523    3.9850    2.3212    0.1582
 10.122216    2.6513   0.9019   2.6100   1.8070   1.4590   1.2950   999.0000   999.0000   999.0000  999.0000    4.0230    4.0485    2.3597    0.1597
 10.130334    2.7082   0.9263   2.6530   1.8302   1.4617   1.2967   999.0000   999.0000   999.0000  999.0000    4.0927    4.1113    2.3976    0.1611
 10.138303    2.7712   0.9609   2.6985   1.8574   1.4638   1.2978   999.0000   999.0000   999.0000  999.0000    4.1615    4.1734    2.4352    0.1624
 10.146128    2.8405   1.0067   2.7464   1.8896   1.4652   1.2984   999.0000   999.0000   999.0000  999.0000    4.2296    4.2348    2.4726    0.1636
