#                                                     Mon Jul 29 20:39:41 2019
#          I------------------------------------------------------------------------------------------------------------------------I
#          I                                                                                                                        I
#          I      BC_GALAXEV  ---  MODEL PARAMETERS:   Generic file name for this model = cb2018_z008_chab_hr_smiles_ssp            I
#          I                                                                                                                        I
#          I      TRACKS: Padova 2013 + Marigo 2013, X=0.729, Y=0.263, Z=0.008                                                      I
#          I                                                                                                                        I
#          I      S.F.R.: SSP = Zero Length Burst at t = 0                                                                          I
#          I                                                                                                                        I
#          I                                                                                                                        I
#          I      I.M.F.: Lognormal + power law                                                                                     I
#          I                                                                      mass in      number                               I
#          I                                                  from m     to m     segment    of stars      c                        I
#          I                                        lognormal   0.10     1.00      0.4057      1.3076                               I
#          I                                          x=1.3     1.00   100.00      0.5943      0.1827                               I
#          I                                                                                                                        I
#          I                                                           totals      1.0000      1.4903  0.6710 Mo/star               I
#          I                                                                                                                        I
#          I                                                                                                                        I
#          I                                                                                                                        I
#          I                                                                                                                        I
#          I      LISTED: Rest frame properties                                                                                     I
#          I                                                                                                                        I
#          I                                                                                                                        I
#          I                              (C) 1995-2017 G. Bruzual A. & S. Charlot - All Rights Reserved                            I
#          I------------------------------------------------------------------------------------------------------------------------I
#
#    (1)        (2)      (3)      (4)      (5)      (6)      (7)       (8)        (9)        (10)      (11)      (12)      (13)      (14)      (15)
#
# Index_No.    WO-1:    WO-2:    WO-3:    WO-4:    GC-1:    4000A    DTT-Ca1    DTT-Ca2    DTT-Ca3   DTT-MgI     DM-04     DM-04     DM-04       BH:
# log-age    HdeltaA  HgammaA  HdeltaF  HgammaF  D(4000)    B4_VN   CaII8498   CaII8542   CaII8662   MgI8807   H8_3889   H9_3835  H10_3798     BH-HK
#   (yr)        (A)      (A)      (A)      (A)       .        .         (A)        (A)        (A)       (A)       (A)       (A)       (A)        (A)
  4.000000    6.0189   6.3277   5.1279   5.4286   1.0481   1.0111   999.0000   999.0000   999.0000  999.0000    5.4832    4.6722    3.7680    0.0877
  4.301030    6.0189   6.3277   5.1279   5.4286   1.0481   1.0111   999.0000   999.0000   999.0000  999.0000    5.4832    4.6722    3.7680    0.0877
  4.477121    6.0189   6.3277   5.1279   5.4286   1.0481   1.0111   999.0000   999.0000   999.0000  999.0000    5.4832    4.6722    3.7680    0.0877
  4.602060    6.0189   6.3277   5.1279   5.4286   1.0481   1.0111   999.0000   999.0000   999.0000  999.0000    5.4832    4.6722    3.7680    0.0877
  4.698970    6.0189   6.3277   5.1279   5.4286   1.0481   1.0111   999.0000   999.0000   999.0000  999.0000    5.4832    4.6722    3.7680    0.0877
  4.778151    6.0189   6.3277   5.1279   5.4286   1.0481   1.0111   999.0000   999.0000   999.0000  999.0000    5.4832    4.6722    3.7680    0.0877
  4.845098    6.0119   6.3259   5.1219   5.4276   1.0479   1.0111   999.0000   999.0000   999.0000  999.0000    5.4791    4.6663    3.7629    0.0876
  4.903090    5.9702   6.3096   5.0854   5.4156   1.0465   1.0107   999.0000   999.0000   999.0000  999.0000    5.4552    4.6315    3.7335    0.0871
  4.954243    5.9609   6.3084   5.0771   5.4154   1.0462   1.0106   999.0000   999.0000   999.0000  999.0000    5.4519    4.6245    3.7278    0.0870
  5.000000    5.9653   6.3119   5.0811   5.4183   1.0464   1.0106   999.0000   999.0000   999.0000  999.0000    5.4553    4.6286    3.7315    0.0870
  5.060698    5.9649   6.3118   5.0808   5.4183   1.0464   1.0106   999.0000   999.0000   999.0000  999.0000    5.4551    4.6283    3.7313    0.0870
  5.113944    5.9529   6.3035   5.0703   5.4115   1.0460   1.0105   999.0000   999.0000   999.0000  999.0000    5.4464    4.6185    3.7228    0.0869
  5.161368    6.1751   6.4724   5.2637   5.5501   1.0533   1.0129   999.0000   999.0000   999.0000  999.0000    5.6094    4.8140    3.8903    0.0899
  5.204120    6.1786   6.4751   5.2668   5.5524   1.0534   1.0129   999.0000   999.0000   999.0000  999.0000    5.6121    4.8172    3.8932    0.0900
  5.243038    6.1845   6.4802   5.2725   5.5570   1.0536   1.0130   999.0000   999.0000   999.0000  999.0000    5.6169    4.8234    3.8989    0.0901
  5.255272    6.1835   6.4796   5.2717   5.5566   1.0535   1.0129   999.0000   999.0000   999.0000  999.0000    5.6162    4.8228    3.8984    0.0900
  5.278754    6.1812   6.4782   5.2698   5.5556   1.0534   1.0129   999.0000   999.0000   999.0000  999.0000    5.6147    4.8212    3.8972    0.0900
  5.301030    6.1825   6.4793   5.2711   5.5565   1.0535   1.0129   999.0000   999.0000   999.0000  999.0000    5.6157    4.8226    3.8985    0.0900
  5.397940    6.1778   6.4761   5.2672   5.5541   1.0533   1.0128   999.0000   999.0000   999.0000  999.0000    5.6123    4.8192    3.8957    0.0899
  5.477121    6.1724   6.4724   5.2626   5.5511   1.0531   1.0128   999.0000   999.0000   999.0000  999.0000    5.6085    4.8149    3.8921    0.0899
  5.544068    6.1595   6.4625   5.2515   5.5431   1.0527   1.0126   999.0000   999.0000   999.0000  999.0000    5.5987    4.8042    3.8830    0.0897
  5.602060    6.1589   6.4626   5.2513   5.5434   1.0527   1.0126   999.0000   999.0000   999.0000  999.0000    5.5985    4.8044    3.8835    0.0897
  5.653213    6.3268   6.5920   5.3977   5.6499   1.0582   1.0144   999.0000   999.0000   999.0000  999.0000    5.7232    4.9537    4.0121    0.0920
  5.698970    6.3578   6.6160   5.4250   5.6698   1.0593   1.0147   999.0000   999.0000   999.0000  999.0000    5.7463    4.9817    4.0365    0.0924
  5.740363    6.3480   6.6088   5.4166   5.6639   1.0589   1.0146   999.0000   999.0000   999.0000  999.0000    5.7390    4.9735    4.0295    0.0923
  5.778151    6.3421   6.6048   5.4115   5.6607   1.0587   1.0145   999.0000   999.0000   999.0000  999.0000    5.7346    4.9686    4.0253    0.0922
  5.812913    6.3799   6.6351   5.4445   5.6858   1.0600   1.0149   999.0000   999.0000   999.0000  999.0000    5.7631    5.0027    4.0549    0.0927
  5.845098    6.5320   6.7528   5.5771   5.7828   1.0651   1.0166   999.0000   999.0000   999.0000  999.0000    5.8772    5.1384    4.1724    0.0948
  5.875061    6.5744   6.7868   5.6143   5.8109   1.0666   1.0171   999.0000   999.0000   999.0000  999.0000    5.9094    5.1769    4.2059    0.0954
  5.903090    6.7893   6.9543   5.8016   5.9490   1.0740   1.0195   999.0000   999.0000   999.0000  999.0000    6.0722    5.3698    4.3737    0.0984
  5.929419    6.8420   6.9969   5.8476   5.9843   1.0758   1.0200   999.0000   999.0000   999.0000  999.0000    6.1128    5.4176    4.4156    0.0991
  5.954243    7.1239   7.2204   6.0934   6.1690   1.0857   1.0232   999.0000   999.0000   999.0000  999.0000    6.3299    5.6733    4.6397    0.1031
  5.977724    7.1317   7.2264   6.1005   6.1742   1.0860   1.0233   999.0000   999.0000   999.0000  999.0000    6.3360    5.6807    4.6464    0.1032
  6.000000    7.3020   7.3624   6.2494   6.2870   1.0921   1.0253   999.0000   999.0000   999.0000  999.0000    6.4689    5.8368    4.7843    0.1056
  6.041393    7.3102   7.3688   6.2570   6.2927   1.0924   1.0253   999.0000   999.0000   999.0000  999.0000    6.4755    5.8448    4.7917    0.1057
  6.079181    7.3081   7.3669   6.2559   6.2916   1.0923   1.0253   999.0000   999.0000   999.0000  999.0000    6.4741    5.8437    4.7913    0.1056
  6.113944    7.3062   7.3651   6.2549   6.2906   1.0922   1.0252   999.0000   999.0000   999.0000  999.0000    6.4729    5.8428    4.7909    0.1056
  6.146128    7.3052   7.3641   6.2543   6.2900   1.0922   1.0252   999.0000   999.0000   999.0000  999.0000    6.4722    5.8422    4.7906    0.1056
  6.176091    7.3035   7.3626   6.2534   6.2892   1.0921   1.0252   999.0000   999.0000   999.0000  999.0000    6.4712    5.8414    4.7903    0.1055
  6.204120    7.3007   7.3599   6.2519   6.2877   1.0920   1.0251   999.0000   999.0000   999.0000  999.0000    6.4694    5.8399    4.7896    0.1055
  6.230449    7.2962   7.3557   6.2494   6.2853   1.0918   1.0250   999.0000   999.0000   999.0000  999.0000    6.4665    5.8376    4.7887    0.1054
  6.255272    7.2945   7.3542   6.2485   6.2845   1.0917   1.0249   999.0000   999.0000   999.0000  999.0000    6.4654    5.8367    4.7883    0.1053
  6.278754    7.2922   7.3520   6.2472   6.2833   1.0916   1.0249   999.0000   999.0000   999.0000  999.0000    6.4639    5.8355    4.7878    0.1053
  6.301030    7.2890   7.3491   6.2455   6.2816   1.0915   1.0248   999.0000   999.0000   999.0000  999.0000    6.4619    5.8339    4.7871    0.1052
  6.322219    7.2858   7.3461   6.2438   6.2799   1.0913   1.0247   999.0000   999.0000   999.0000  999.0000    6.4598    5.8322    4.7864    0.1052
  6.342422    7.2819   7.3424   6.2416   6.2779   1.0911   1.0246   999.0000   999.0000   999.0000  999.0000    6.4573    5.8302    4.7856    0.1051
  6.361728    7.2767   7.3376   6.2388   6.2752   1.0909   1.0245   999.0000   999.0000   999.0000  999.0000    6.4539    5.8275    4.7845    0.1050
  6.380211    7.1000   7.1555   6.0858   6.1314   1.0855   1.0225   999.0000   999.0000   999.0000  999.0000    6.2988    5.6763    4.6652    0.1021
  6.397940    6.7735   6.8187   5.8027   5.8648   1.0757   1.0188   999.0000   999.0000   999.0000  999.0000    6.0125    5.3974    4.4461    0.0968
  6.414973    6.2109   6.2369   5.3144   5.4041   1.0593   1.0127   999.0000   999.0000   999.0000  999.0000    5.5215    4.9201    4.0746    0.0876
  6.431364    5.7007   5.7087   4.8734   4.9868   1.0449   1.0072   999.0000   999.0000   999.0000  999.0000    5.0802    4.4929    3.7468    0.0794
  6.447158    5.2001   5.1897   4.4412   4.5767   1.0312   1.0019   999.0000   999.0000   999.0000  999.0000    4.6500    4.0778    3.4320    0.0713
  6.462398    4.8173   4.7920   4.1108   4.2625   1.0211   0.9980   999.0000   999.0000   999.0000  999.0000    4.3227    3.7627    3.1952    0.0651
  6.477121    4.5287   4.4920   3.8621   4.0256   1.0136   0.9950   999.0000   999.0000   999.0000  999.0000    4.0771    3.5268    3.0193    0.0604
  6.491362    4.4855   4.0064   3.6819   3.6076   1.0376   1.0143   999.0000   999.0000   999.0000  999.0000    3.9413    3.6466    3.0658    0.0693
  6.505150    4.2205   3.3360   3.3663   3.0635   1.0448   1.0234   999.0000   999.0000   999.0000  999.0000    3.8075    3.6194    3.0344    0.0692
  6.518514    4.2478   3.3509   3.3923   3.0789   1.0502   1.0276   999.0000   999.0000   999.0000  999.0000    3.8377    3.6334    3.0487    0.0709
  6.531479    4.3177   3.4013   3.4834   3.1674   1.0579   1.0327   999.0000   999.0000   999.0000  999.0000    3.9298    3.7460    3.1226    0.0762
  6.544068    4.8006   3.9549   3.8598   3.5741   1.0718   1.0393   999.0000   999.0000   999.0000  999.0000    4.3300    4.0772    3.3317    0.0853
  6.556303    5.0291   4.1401   4.0736   3.8177   1.1095   1.0662   999.0000   999.0000   999.0000  999.0000    4.5799    4.3837    3.4989    0.1055
  6.568202    5.7286   4.9063   4.6022   4.4137   1.1590   1.0971   999.0000   999.0000   999.0000  999.0000    5.1407    4.9007    3.7688    0.1310
  6.579783    5.7116   5.0964   4.6793   4.5967   1.1434   1.0852   999.0000   999.0000   999.0000  999.0000    5.1614    4.8016    3.7297    0.1260
  6.591064    5.1013   4.2076   4.3813   4.1950   1.1824   1.1192   999.0000   999.0000   999.0000  999.0000    5.0252    4.8456    3.6947    0.1408
  6.602060    4.3469   3.0755   3.9591   3.5139   1.1860   1.1270   999.0000   999.0000   999.0000  999.0000    4.8452    4.7153    3.6090    0.1307
  6.612784    3.6745   2.2099   3.5627   2.9739   1.1731   1.1225   999.0000   999.0000   999.0000  999.0000    4.5577    4.4673    3.4641    0.1184
  6.623249    3.6144   2.0756   3.5987   2.9490   1.1860   1.1326   999.0000   999.0000   999.0000  999.0000    4.7092    4.6005    3.5353    0.1221
  6.633469    3.4497   1.7267   3.5174   2.7819   1.2120   1.1539   999.0000   999.0000   999.0000  999.0000    4.7905    4.7539    3.5822    0.1294
  6.643453    3.4509   1.6175   3.4719   2.7671   1.2518   1.1855   999.0000   999.0000   999.0000  999.0000    4.8368    4.9560    3.5784    0.1450
  6.653213    4.2649   2.6359   3.9058   3.3685   1.2725   1.1954   999.0000   999.0000   999.0000  999.0000    5.1490    5.2518    3.6962    0.1611
  6.662758    4.7542   3.2876   4.2363   3.8056   1.2949   1.2073   999.0000   999.0000   999.0000  999.0000    5.4226    5.4995    3.8192    0.1744
  6.672098    4.4937   2.9083   4.1219   3.6437   1.3292   1.2359   999.0000   999.0000   999.0000  999.0000    5.4598    5.6207    3.8098    0.1844
  6.681241    4.4460   2.7300   4.1057   3.5514   1.3471   1.2503   999.0000   999.0000   999.0000  999.0000    5.5877    5.7349    3.8486    0.1880
  6.690196    4.3702   2.5990   4.0625   3.4905   1.3471   1.2518   999.0000   999.0000   999.0000  999.0000    5.5588    5.6988    3.8529    0.1887
  6.698970    3.9819   2.1995   3.8342   3.2960   1.3485   1.2572   999.0000   999.0000   999.0000  999.0000    5.2469    5.5527    3.7567    0.1920
  6.720160    3.7850   2.3607   3.7064   3.4448   1.3387   1.2517   999.0000   999.0000   999.0000  999.0000    4.6746    5.3028    3.6202    0.2045
  6.740363    3.8830   2.3625   3.8101   3.4068   1.3463   1.2508   999.0000   999.0000   999.0000  999.0000    4.9433    5.6131    3.6789    0.1947
  6.759668    6.3986   5.2086   5.3011   4.9530   1.3306   1.2140   999.0000   999.0000   999.0000  999.0000    6.4326    6.3279    4.3083    0.1946
  6.778151    6.1890   4.8527   5.2425   4.7883   1.3317   1.2166   999.0000   999.0000   999.0000  999.0000    6.5178    6.3278    4.3989    0.1910
  6.795880    5.2617   3.6083   4.7722   4.1221   1.3349   1.2267   999.0000   999.0000   999.0000  999.0000    6.2720    6.2143    4.3340    0.1837
  6.812913    6.8217   5.5381   5.8703   5.2319   1.2466   1.1462   999.0000   999.0000   999.0000  999.0000    6.9375    6.3347    4.7973    0.1614
  6.829304    7.6450   6.6245   6.3330   5.8429   1.2213   1.1204   999.0000   999.0000   999.0000  999.0000    7.1398    6.4293    4.9131    0.1573
  6.845098    7.9245   7.0279   6.5090   6.0806   1.2190   1.1160   999.0000   999.0000   999.0000  999.0000    7.2670    6.5335    4.9848    0.1574
  6.860338    8.1230   7.3230   6.6557   6.2676   1.2138   1.1099   999.0000   999.0000   999.0000  999.0000    7.3714    6.6267    5.0627    0.1559
  6.875061    8.2873   7.5619   6.7624   6.4083   1.2102   1.1057   999.0000   999.0000   999.0000  999.0000    7.4444    6.6821    5.1096    0.1549
  6.903090    8.3796   7.7462   6.7134   6.4394   1.2148   1.1098   999.0000   999.0000   999.0000  999.0000    7.3766    6.5718    4.9780    0.1574
  6.929419    7.9259   7.3251   6.3660   6.1297   1.1979   1.1026   999.0000   999.0000   999.0000  999.0000    6.9857    6.2140    4.7165    0.1494
  6.954243    6.8337   6.3059   5.6702   5.4748   1.1443   1.0724   999.0000   999.0000   999.0000  999.0000    6.1623    5.5126    4.2957    0.1239
  6.977724    6.5850   6.1837   5.5000   5.3626   1.1162   1.0535   999.0000   999.0000   999.0000  999.0000    5.9003    5.2571    4.1612    0.1112
  7.000000    6.2482   5.9357   5.2463   5.1655   1.0970   1.0422   999.0000   999.0000   999.0000  999.0000    5.5928    4.9754    3.9776    0.1020
  7.021189    5.9799   5.7432   5.0510   5.0159   1.0815   1.0328   999.0000   999.0000   999.0000  999.0000    5.3554    4.7614    3.8450    0.0945
  7.041393    6.2467   6.0698   5.2337   5.2280   1.0856   1.0337   999.0000   999.0000   999.0000  999.0000    5.5123    4.9079    3.9410    0.0973
  7.060698    6.9735   6.7970   5.7767   5.7569   1.1077   1.0438   999.0000   999.0000   999.0000  999.0000    6.0761    5.4190    4.3033    0.1096
  7.079181    6.8066   6.6240   5.6521   5.6359   1.1008   1.0404   999.0000   999.0000   999.0000  999.0000    5.9604    5.2923    4.2305    0.1066
  7.096910    5.9109   5.7136   5.0373   5.0177   1.0728   1.0264   999.0000   999.0000   999.0000  999.0000    5.3266    4.7388    3.8633    0.0909
  7.113944    5.8832   5.6701   5.0216   4.9903   1.0735   1.0270   999.0000   999.0000   999.0000  999.0000    5.3143    4.7325    3.8554    0.0909
  7.130334    5.8843   5.6514   5.0238   4.9798   1.0757   1.0286   999.0000   999.0000   999.0000  999.0000    5.3239    4.7445    3.8578    0.0917
  7.146128    5.8929   5.6398   5.0337   4.9765   1.0780   1.0302   999.0000   999.0000   999.0000  999.0000    5.3419    4.7642    3.8675    0.0926
  7.161368    5.9509   5.6941   5.0776   5.0167   1.0809   1.0319   999.0000   999.0000   999.0000  999.0000    5.3903    4.8113    3.8970    0.0940
  7.176091    6.1402   5.8577   5.2158   5.1408   1.0914   1.0381   999.0000   999.0000   999.0000  999.0000    5.5512    4.9645    3.9905    0.0993
  7.204120    6.3700   5.9659   5.4195   5.2696   1.1101   1.0499   999.0000   999.0000   999.0000  999.0000    5.8239    5.2299    4.1692    0.1080
  7.230449    6.4782   5.8981   5.5761   5.3078   1.1254   1.0597   999.0000   999.0000   999.0000  999.0000    6.0640    5.4691    4.3571    0.1144
  7.255272    6.4744   5.6420   5.7162   5.2682   1.1389   1.0684   999.0000   999.0000   999.0000  999.0000    6.3145    5.7301    4.5984    0.1193
  7.278754    6.7032   5.7892   5.9363   5.4233   1.1521   1.0754   999.0000   999.0000   999.0000  999.0000    6.5882    5.9962    4.8064    0.1253
  7.301030    6.7054   5.7845   5.9378   5.4212   1.1532   1.0762   999.0000   999.0000   999.0000  999.0000    6.5950    6.0032    4.8084    0.1257
  7.322219    6.7247   5.8157   5.9481   5.4387   1.1532   1.0760   999.0000   999.0000   999.0000  999.0000    6.6013    6.0084    4.8106    0.1258
  7.342422    6.7361   5.8429   5.9556   5.4544   1.1530   1.0757   999.0000   999.0000   999.0000  999.0000    6.6074    6.0152    4.8150    0.1258
  7.361728    6.7397   5.8446   5.9559   5.4540   1.1548   1.0770   999.0000   999.0000   999.0000  999.0000    6.6188    6.0252    4.8173    0.1265
  7.380211    6.7540   5.8619   5.9606   5.4613   1.1567   1.0783   999.0000   999.0000   999.0000  999.0000    6.6331    6.0366    4.8194    0.1272
  7.397940    6.8388   5.9669   6.0015   5.5184   1.1612   1.0808   999.0000   999.0000   999.0000  999.0000    6.6810    6.0805    4.8326    0.1293
  7.414973    7.2113   6.4328   6.2216   5.7945   1.1668   1.0819   999.0000   999.0000   999.0000  999.0000    6.8711    6.2378    4.9214    0.1331
  7.431364    7.6005   6.9042   6.4461   6.0677   1.1736   1.0839   999.0000   999.0000   999.0000  999.0000    7.0750    6.3968    5.0075    0.1375
  7.447158    7.9213   7.2904   6.6279   6.2871   1.1792   1.0854   999.0000   999.0000   999.0000  999.0000    7.2436    6.5218    5.0746    0.1410
  7.462398    8.2097   7.6449   6.7881   6.4838   1.1831   1.0860   999.0000   999.0000   999.0000  999.0000    7.3904    6.6230    5.1286    0.1437
  7.477121    8.4752   7.9720   6.9307   6.6586   1.1859   1.0860   999.0000   999.0000   999.0000  999.0000    7.5216    6.7037    5.1703    0.1459
  7.491362    8.5751   8.1020   6.9826   6.7279   1.1872   1.0861   999.0000   999.0000   999.0000  999.0000    7.5680    6.7338    5.1835    0.1468
  7.505150    8.5139   8.0456   6.9566   6.7063   1.1856   1.0853   999.0000   999.0000   999.0000  999.0000    7.5306    6.7188    5.1823    0.1459
  7.518514    8.4531   7.9885   6.9299   6.6831   1.1840   1.0846   999.0000   999.0000   999.0000  999.0000    7.4934    6.7030    5.1801    0.1450
  7.531479    8.3977   7.9370   6.9046   6.6612   1.1825   1.0839   999.0000   999.0000   999.0000  999.0000    7.4583    6.6871    5.1772    0.1442
  7.544068    8.3547   7.8974   6.8845   6.6444   1.1815   1.0834   999.0000   999.0000   999.0000  999.0000    7.4306    6.6746    5.1744    0.1436
  7.556303    8.3283   7.8762   6.8716   6.6361   1.1810   1.0832   999.0000   999.0000   999.0000  999.0000    7.4112    6.6660    5.1721    0.1433
  7.568202    8.3051   7.8631   6.8606   6.6320   1.1801   1.0827   999.0000   999.0000   999.0000  999.0000    7.3927    6.6574    5.1701    0.1429
  7.579783    8.2554   7.8161   6.8367   6.6101   1.1786   1.0819   999.0000   999.0000   999.0000  999.0000    7.3626    6.6417    5.1653    0.1420
  7.591064    8.2443   7.7997   6.8252   6.5966   1.1794   1.0826   999.0000   999.0000   999.0000  999.0000    7.3574    6.6368    5.1580    0.1423
  7.602060    8.2518   7.8013   6.8254   6.5942   1.1808   1.0836   999.0000   999.0000   999.0000  999.0000    7.3662    6.6426    5.1559    0.1428
  7.628389    8.2678   7.8051   6.8246   6.5881   1.1840   1.0858   999.0000   999.0000   999.0000  999.0000    7.3843    6.6539    5.1498    0.1441
  7.653213    8.2662   7.7954   6.8153   6.5759   1.1860   1.0873   999.0000   999.0000   999.0000  999.0000    7.3883    6.6554    5.1409    0.1448
  7.676693    8.2557   7.7894   6.8072   6.5707   1.1860   1.0872   999.0000   999.0000   999.0000  999.0000    7.3836    6.6534    5.1350    0.1448
  7.698970    8.2288   7.7605   6.7839   6.5477   1.1862   1.0875   999.0000   999.0000   999.0000  999.0000    7.3655    6.6367    5.1182    0.1448
  7.728354    8.4416   7.9669   6.8632   6.6314   1.1977   1.0947   999.0000   999.0000   999.0000  999.0000    7.4804    6.6994    5.1193    0.1499
  7.755875    8.5786   8.1011   6.9233   6.6933   1.2048   1.0989   999.0000   999.0000   999.0000  999.0000    7.5616    6.7528    5.1313    0.1530
  7.778151    8.6295   8.1488   6.9528   6.7224   1.2080   1.1007   999.0000   999.0000   999.0000  999.0000    7.5985    6.7890    5.1458    0.1542
  7.845098    8.7783   8.2910   6.9881   6.7610   1.2186   1.1075   999.0000   999.0000   999.0000  999.0000    7.6852    6.8244    5.1206    0.1586
  7.903090    8.6129   8.1169   6.8818   6.6587   1.2194   1.1093   999.0000   999.0000   999.0000  999.0000    7.5805    6.7645    5.0747    0.1579
  7.954243    8.5432   8.0377   6.8365   6.6152   1.2236   1.1126   999.0000   999.0000   999.0000  999.0000    7.5499    6.7620    5.0590    0.1589
  8.000000    8.3330   7.8232   6.7283   6.5080   1.2221   1.1124   999.0000   999.0000   999.0000  999.0000    7.4370    6.7111    5.0271    0.1570
  8.041392    8.0982   7.5660   6.5974   6.3757   1.2258   1.1163   999.0000   999.0000   999.0000  999.0000    7.3197    6.6651    4.9795    0.1571
  8.079182    7.8634   7.2878   6.4630   6.2282   1.2267   1.1180   999.0000   999.0000   999.0000  999.0000    7.1970    6.6199    4.9309    0.1564
  8.146128    7.5967   6.8530   6.2956   5.9842   1.2363   1.1263   999.0000   999.0000   999.0000  999.0000    7.1013    6.6637    4.8811    0.1592
  8.204120    7.9034   7.1122   6.4856   6.1357   1.2490   1.1327   999.0000   999.0000   999.0000  999.0000    7.3669    6.8972    4.9916    0.1648
  8.255273    8.3236   7.4633   6.7500   6.3490   1.2684   1.1424   999.0000   999.0000   999.0000  999.0000    7.7552    7.2175    5.1519    0.1717
  8.301030    8.6730   7.7527   6.9840   6.5335   1.2881   1.1528   999.0000   999.0000   999.0000  999.0000    8.1290    7.5183    5.3109    0.1779
  8.352182    9.2345   8.3181   7.3217   6.8614   1.3070   1.1614   999.0000   999.0000   999.0000  999.0000    8.5450    7.8063    5.4916    0.1861
  8.397940    9.6679   8.7859   7.6159   7.1582   1.3173   1.1641   999.0000   999.0000   999.0000  999.0000    8.8616    8.0591    5.6655    0.1915
  8.439333    9.8535   8.9418   7.7234   7.2500   1.3305   1.1716   999.0000   999.0000   999.0000  999.0000    9.0212    8.1984    5.7351    0.1965
  8.477121    9.9956   9.0711   7.8013   7.3196   1.3409   1.1774   999.0000   999.0000   999.0000  999.0000    9.1369    8.2916    5.7703    0.2002
  8.544068   10.1938   9.2435   7.8817   7.3915   1.3597   1.1888   999.0000   999.0000   999.0000  999.0000    9.2817    8.3950    5.7827    0.2065
  8.602060   10.4449   9.4412   7.9665   7.4629   1.3875   1.2066   999.0000   999.0000   999.0000  999.0000    9.4645    8.5083    5.7712    0.2158
  8.653213   10.6881   9.6188   8.0212   7.5057   1.4213   1.2291   999.0000   999.0000   999.0000  999.0000    9.6321    8.6020    5.7280    0.2267
  8.698970   10.8540   9.7119   7.9964   7.4762   1.4557   1.2533   999.0000   999.0000   999.0000  999.0000    9.7140    8.6146    5.6230    0.2370
  8.740363   10.7901   9.5938   7.8715   7.3522   1.4750   1.2690   999.0000   999.0000   999.0000  999.0000    9.6415    8.5385    5.5083    0.2418
  8.778152   10.6967   9.4460   7.7145   7.2026   1.4957   1.2860   999.0000   999.0000   999.0000  999.0000    9.5286    8.4324    5.3689    0.2464
  8.812913   10.5483   9.2561   7.5545   7.0521   1.5109   1.2997   999.0000   999.0000   999.0000  999.0000    9.3932    8.3214    5.2458    0.2495
  8.845098   10.3033   8.9616   7.3517   6.8576   1.5243   1.3129   999.0000   999.0000   999.0000  999.0000    9.2024    8.1948    5.1163    0.2519
  8.875061    9.9856   8.6003   7.1690   6.6716   1.5279   1.3190   999.0000   999.0000   999.0000  999.0000    9.0326    8.1100    5.0363    0.2522
  8.903090    9.7063   8.3014   7.0084   6.5138   1.5313   1.3241   999.0000   999.0000   999.0000  999.0000    8.8692    8.0211    4.9669    0.2518
  8.929419    9.2279   7.7879   6.7399   6.2517   1.5355   1.3318   999.0000   999.0000   999.0000  999.0000    8.6013    7.8857    4.8519    0.2510
  8.954243    8.7789   7.3116   6.4979   6.0157   1.5382   1.3384   999.0000   999.0000   999.0000  999.0000    8.3560    7.7570    4.7514    0.2501
  9.000000    7.7766   6.1917   5.9341   5.4388   1.5478   1.3562   999.0000   999.0000   999.0000  999.0000    7.7985    7.4802    4.5117    0.2494
  9.041392    6.9400   5.3239   5.4379   4.9743   1.5548   1.3701   999.0000   999.0000   999.0000  999.0000    7.2565    7.1963    4.2731    0.2475
  9.079182    5.9330   4.2175   4.8774   4.4043   1.5651   1.3891   999.0000   999.0000   999.0000  999.0000    6.6787    6.9139    4.0294    0.2466
  9.113943    4.9532   3.1030   4.3183   3.8181   1.5808   1.4123   999.0000   999.0000   999.0000  999.0000    6.1242    6.6618    3.7856    0.2471
  9.146128    3.9946   2.0418   3.7740   3.2592   1.5971   1.4363   999.0000   999.0000   999.0000  999.0000    5.5822    6.4267    3.5498    0.2476
  9.176091    2.9724   0.7246   3.2128   2.5476   1.6463   1.4866   999.0000   999.0000   999.0000  999.0000    5.2007    6.3096    3.3684    0.2539
  9.204120    2.3936   0.0273   2.8771   2.1658   1.6754   1.5169   999.0000   999.0000   999.0000  999.0000    4.9585    6.2621    3.2340    0.2574
  9.230449    1.6178  -0.9049   2.4550   1.6320   1.7269   1.5623   999.0000   999.0000   999.0000  999.0000    4.6638    6.1713    3.1075    0.2616
  9.255273    2.5112   0.2830   2.9468   2.3163   1.6476   1.4898   999.0000   999.0000   999.0000  999.0000    4.6706    6.1172    3.2091    0.2564
  9.278753    2.2830  -0.0055   2.8056   2.1638   1.6518   1.4965   999.0000   999.0000   999.0000  999.0000    4.4754    6.0453    3.1255    0.2582
  9.301030    1.9288  -0.4613   2.6007   1.9177   1.6647   1.5122   999.0000   999.0000   999.0000  999.0000    4.2953    5.9922    3.0307    0.2602
  9.322219    1.6294  -0.8433   2.4259   1.7140   1.6752   1.5252   999.0000   999.0000   999.0000  999.0000    4.1292    5.9471    2.9464    0.2619
  9.342422    1.3951  -1.1362   2.2840   1.5597   1.6836   1.5352   999.0000   999.0000   999.0000  999.0000    3.9737    5.9082    2.8703    0.2632
  9.361728    1.1953  -1.3992   2.1658   1.4218   1.6931   1.5459   999.0000   999.0000   999.0000  999.0000    3.8600    5.8884    2.8107    0.2649
  9.380211    0.9775  -1.6874   2.0388   1.2672   1.7038   1.5582   999.0000   999.0000   999.0000  999.0000    3.7509    5.8712    2.7491    0.2666
  9.397940    0.7828  -1.9427   1.9242   1.1283   1.7127   1.5689   999.0000   999.0000   999.0000  999.0000    3.6507    5.8551    2.6911    0.2681
  9.414973    0.4490  -2.3981   1.7348   0.8850   1.7368   1.5951   999.0000   999.0000   999.0000  999.0000    3.5593    5.8635    2.6177    0.2715
  9.447158   -0.2773  -3.4038   1.3435   0.3569   1.7954   1.6583   999.0000   999.0000   999.0000  999.0000    3.3944    5.8873    2.4881    0.2804
  9.477121   -0.3993  -3.5515   1.2727   0.2767   1.7996   1.6646   999.0000   999.0000   999.0000  999.0000    3.3404    5.8935    2.4428    0.2806
  9.511884   -0.4973  -3.6757   1.2156   0.2089   1.8048   1.6713   999.0000   999.0000   999.0000  999.0000    3.2991    5.9009    2.4096    0.2812
  9.544068   -0.6196  -3.8295   1.1476   0.1252   1.8114   1.6794   999.0000   999.0000   999.0000  999.0000    3.2398    5.9004    2.3733    0.2823
  9.574031   -0.7907  -4.0500   1.0522   0.0065   1.8224   1.6923   999.0000   999.0000   999.0000  999.0000    3.1636    5.9027    2.3255    0.2840
  9.602060   -0.9832  -4.3044   0.9432  -0.1308   1.8352   1.7073   999.0000   999.0000   999.0000  999.0000    3.0751    5.8984    2.2704    0.2860
  9.628389   -1.1104  -4.4650   0.8676  -0.2211   1.8412   1.7152   999.0000   999.0000   999.0000  999.0000    3.0020    5.8903    2.2242    0.2868
  9.653213   -1.2551  -4.6481   0.7873  -0.3229   1.8500   1.7259   999.0000   999.0000   999.0000  999.0000    2.9397    5.8855    2.1854    0.2882
  9.676694   -1.3030  -4.6966   0.7503  -0.3599   1.8483   1.7254   999.0000   999.0000   999.0000  999.0000    2.8722    5.8730    2.1485    0.2880
  9.698970   -1.4097  -4.8290   0.6897  -0.4358   1.8532   1.7321   999.0000   999.0000   999.0000  999.0000    2.8134    5.8701    2.1138    0.2890
  9.720160   -1.5555  -5.0201   0.6104  -0.5393   1.8640   1.7451   999.0000   999.0000   999.0000  999.0000    2.7609    5.8774    2.0786    0.2908
  9.740363   -1.7076  -5.2227   0.5283  -0.6469   1.8776   1.7605   999.0000   999.0000   999.0000  999.0000    2.7178    5.8875    2.0457    0.2930
  9.759667   -1.8631  -5.4403   0.4480  -0.7584   1.8937   1.7783   999.0000   999.0000   999.0000  999.0000    2.6930    5.9000    2.0186    0.2953
  9.778152   -1.9813  -5.6013   0.3863  -0.8417   1.9060   1.7918   999.0000   999.0000   999.0000  999.0000    2.6761    5.9102    1.9955    0.2968
  9.795880   -2.0892  -5.7477   0.3295  -0.9177   1.9175   1.8043   999.0000   999.0000   999.0000  999.0000    2.6639    5.9201    1.9733    0.2980
  9.812913   -2.1760  -5.8637   0.2822  -0.9796   1.9265   1.8141   999.0000   999.0000   999.0000  999.0000    2.6496    5.9280    1.9516    0.2988
  9.829304   -2.2552  -5.9697   0.2417  -1.0358   1.9342   1.8227   999.0000   999.0000   999.0000  999.0000    2.6397    5.9339    1.9357    0.2996
  9.845098   -2.3345  -6.0738   0.2026  -1.0906   1.9418   1.8312   999.0000   999.0000   999.0000  999.0000    2.6337    5.9417    1.9224    0.3003
  9.860338   -2.4102  -6.1721   0.1654  -1.1427   1.9494   1.8396   999.0000   999.0000   999.0000  999.0000    2.6246    5.9497    1.9092    0.3010
  9.875061   -2.4877  -6.2717   0.1276  -1.1949   1.9573   1.8483   999.0000   999.0000   999.0000  999.0000    2.6149    5.9605    1.8960    0.3018
  9.889301   -2.5606  -6.3616   0.0901  -1.2434   1.9651   1.8565   999.0000   999.0000   999.0000  999.0000    2.6019    5.9759    1.8805    0.3026
  9.903090   -2.6268  -6.4517   0.0569  -1.2907   1.9733   1.8653   999.0000   999.0000   999.0000  999.0000    2.5942    5.9905    1.8672    0.3035
  9.916454   -2.6914  -6.5386   0.0250  -1.3360   1.9816   1.8740   999.0000   999.0000   999.0000  999.0000    2.5890    6.0056    1.8552    0.3044
  9.929419   -2.7566  -6.6254  -0.0068  -1.3813   1.9900   1.8828   999.0000   999.0000   999.0000  999.0000    2.5847    6.0216    1.8432    0.3052
  9.942008   -2.8203  -6.7095  -0.0368  -1.4243   1.9981   1.8914   999.0000   999.0000   999.0000  999.0000    2.5881    6.0359    1.8333    0.3059
  9.954243   -2.8798  -6.7893  -0.0648  -1.4647   2.0059   1.8998   999.0000   999.0000   999.0000  999.0000    2.5950    6.0514    1.8243    0.3066
  9.966142   -2.9585  -6.8944  -0.0993  -1.5162   2.0166   1.9114   999.0000   999.0000   999.0000  999.0000    2.6066    6.0690    1.8182    0.3077
  9.977724   -3.0223  -6.9798  -0.1275  -1.5574   2.0253   1.9209   999.0000   999.0000   999.0000  999.0000    2.6227    6.0811    1.8114    0.3084
  9.989004   -3.0878  -7.0670  -0.1558  -1.5989   2.0343   1.9308   999.0000   999.0000   999.0000  999.0000    2.6406    6.0941    1.8057    0.3091
 10.000000   -3.1466  -7.1450  -0.1812  -1.6361   2.0425   1.9398   999.0000   999.0000   999.0000  999.0000    2.6554    6.1057    1.8005    0.3097
 10.010724   -3.2011  -7.2187  -0.2045  -1.6710   2.0503   1.9484   999.0000   999.0000   999.0000  999.0000    2.6736    6.1164    1.7960    0.3103
 10.021190   -3.2554  -7.2924  -0.2274  -1.7056   2.0582   1.9572   999.0000   999.0000   999.0000  999.0000    2.6921    6.1275    1.7920    0.3109
 10.031408   -3.3091  -7.3641  -0.2500  -1.7391   2.0661   1.9659   999.0000   999.0000   999.0000  999.0000    2.7080    6.1404    1.7882    0.3116
 10.041392   -3.3676  -7.4426  -0.2746  -1.7761   2.0750   1.9759   999.0000   999.0000   999.0000  999.0000    2.7211    6.1549    1.7845    0.3125
 10.051152   -3.4111  -7.5043  -0.2958  -1.8067   2.0830   1.9843   999.0000   999.0000   999.0000  999.0000    2.7314    6.1676    1.7771    0.3132
 10.060698   -3.4578  -7.5694  -0.3168  -1.8379   2.0906   1.9927   999.0000   999.0000   999.0000  999.0000    2.7404    6.1776    1.7721    0.3140
 10.070038   -3.5026  -7.6296  -0.3371  -1.8674   2.0977   2.0006   999.0000   999.0000   999.0000  999.0000    2.7438    6.1878    1.7668    0.3148
 10.079182   -3.5497  -7.6906  -0.3584  -1.8976   2.1048   2.0085   999.0000   999.0000   999.0000  999.0000    2.7454    6.1980    1.7612    0.3156
 10.088136   -3.5965  -7.7507  -0.3794  -1.9273   2.1118   2.0163   999.0000   999.0000   999.0000  999.0000    2.7497    6.2073    1.7563    0.3163
 10.096910   -3.6422  -7.8078  -0.3997  -1.9554   2.1184   2.0237   999.0000   999.0000   999.0000  999.0000    2.7526    6.2160    1.7518    0.3171
 10.105510   -3.6870  -7.8637  -0.4199  -1.9834   2.1250   2.0310   999.0000   999.0000   999.0000  999.0000    2.7546    6.2251    1.7468    0.3177
 10.113943   -3.7333  -7.9204  -0.4406  -2.0117   2.1315   2.0384   999.0000   999.0000   999.0000  999.0000    2.7575    6.2343    1.7419    0.3184
 10.122216   -3.7863  -7.9834  -0.4633  -2.0427   2.1389   2.0468   999.0000   999.0000   999.0000  999.0000    2.7612    6.2446    1.7386    0.3192
 10.130334   -3.8325  -8.0393  -0.4836  -2.0705   2.1458   2.0546   999.0000   999.0000   999.0000  999.0000    2.7619    6.2525    1.7347    0.3201
 10.138303   -3.8754  -8.0911  -0.5024  -2.0964   2.1525   2.0619   999.0000   999.0000   999.0000  999.0000    2.7620    6.2605    1.7307    0.3209
 10.146128   -3.9190  -8.1430  -0.5212  -2.1223   2.1592   2.0693   999.0000   999.0000   999.0000  999.0000    2.7628    6.2689    1.7269    0.3217
