#                                                     Mon Jul 29 20:36:37 2019
#          I------------------------------------------------------------------------------------------------------------------------I
#          I                                                                                                                        I
#          I      BC_GALAXEV  ---  MODEL PARAMETERS:   Generic file name for this model = cb2018_z0002_chab_hr_smiles_ssp           I
#          I                                                                                                                        I
#          I      TRACKS: Padova 2013 + Marigo 2013, X=0.7508, Y=0.249, Z=0.0002                                                    I
#          I                                                                                                                        I
#          I      S.F.R.: SSP = Zero Length Burst at t = 0                                                                          I
#          I                                                                                                                        I
#          I                                                                                                                        I
#          I      I.M.F.: Lognormal + power law                                                                                     I
#          I                                                                      mass in      number                               I
#          I                                                  from m     to m     segment    of stars      c                        I
#          I                                        lognormal   0.10     1.00      0.4057      1.3076                               I
#          I                                          x=1.3     1.00   100.00      0.5943      0.1827                               I
#          I                                                                                                                        I
#          I                                                           totals      1.0000      1.4903  0.6710 Mo/star               I
#          I                                                                                                                        I
#          I                                                                                                                        I
#          I                                                                                                                        I
#          I                                                                                                                        I
#          I      LISTED: Rest frame properties                                                                                     I
#          I                                                                                                                        I
#          I                                                                                                                        I
#          I                              (C) 1995-2017 G. Bruzual A. & S. Charlot - All Rights Reserved                            I
#          I------------------------------------------------------------------------------------------------------------------------I
#
#    (1)        (2)      (3)      (4)      (5)      (6)      (7)       (8)        (9)        (10)      (11)      (12)      (13)      (14)      (15)
#
# Index_No.    WO-1:    WO-2:    WO-3:    WO-4:    GC-1:    4000A    DTT-Ca1    DTT-Ca2    DTT-Ca3   DTT-MgI     DM-04     DM-04     DM-04       BH:
# log-age    HdeltaA  HgammaA  HdeltaF  HgammaF  D(4000)    B4_VN   CaII8498   CaII8542   CaII8662   MgI8807   H8_3889   H9_3835  H10_3798     BH-HK
#   (yr)        (A)      (A)      (A)      (A)       .        .         (A)        (A)        (A)       (A)       (A)       (A)       (A)        (A)
  4.000000    6.4238   7.1963   5.1713   5.8651   1.0448   1.0143   999.0000   999.0000   999.0000  999.0000    5.8273    4.5786    3.3706    0.0931
  4.301030    6.4238   7.1963   5.1713   5.8651   1.0448   1.0143   999.0000   999.0000   999.0000  999.0000    5.8273    4.5786    3.3706    0.0931
  4.477121    6.4238   7.1963   5.1713   5.8651   1.0448   1.0143   999.0000   999.0000   999.0000  999.0000    5.8273    4.5786    3.3706    0.0931
  4.602060    6.4238   7.1963   5.1713   5.8651   1.0448   1.0143   999.0000   999.0000   999.0000  999.0000    5.8273    4.5786    3.3706    0.0931
  4.698970    6.4238   7.1963   5.1713   5.8651   1.0448   1.0143   999.0000   999.0000   999.0000  999.0000    5.8273    4.5785    3.3706    0.0931
  4.778151    6.4238   7.1963   5.1713   5.8651   1.0448   1.0143   999.0000   999.0000   999.0000  999.0000    5.8273    4.5786    3.3706    0.0931
  4.845098    6.4222   7.1952   5.1701   5.8642   1.0448   1.0143   999.0000   999.0000   999.0000  999.0000    5.8263    4.5774    3.3697    0.0931
  4.903090    6.4102   7.1851   5.1602   5.8566   1.0444   1.0142   999.0000   999.0000   999.0000  999.0000    5.8173    4.5679    3.3622    0.0929
  4.954243    6.4042   7.1800   5.1554   5.8526   1.0443   1.0141   999.0000   999.0000   999.0000  999.0000    5.8128    4.5631    3.3584    0.0928
  5.000000    6.3964   7.1733   5.1490   5.8476   1.0440   1.0141   999.0000   999.0000   999.0000  999.0000    5.8070    4.5569    3.3535    0.0927
  5.060698    6.3915   7.1692   5.1450   5.8444   1.0439   1.0140   999.0000   999.0000   999.0000  999.0000    5.8033    4.5530    3.3504    0.0926
  5.113944    6.3821   7.1613   5.1373   5.8384   1.0436   1.0139   999.0000   999.0000   999.0000  999.0000    5.7963    4.5454    3.3445    0.0925
  5.161368    6.3808   7.1602   5.1363   5.8376   1.0436   1.0139   999.0000   999.0000   999.0000  999.0000    5.7953    4.5444    3.3437    0.0925
  5.204120    6.3769   7.1570   5.1332   5.8351   1.0434   1.0138   999.0000   999.0000   999.0000  999.0000    5.7925    4.5414    3.3414    0.0924
  5.243038    6.3730   7.1537   5.1299   5.8326   1.0433   1.0138   999.0000   999.0000   999.0000  999.0000    5.7896    4.5383    3.3389    0.0923
  5.255272    6.3698   7.1511   5.1274   5.8306   1.0432   1.0138   999.0000   999.0000   999.0000  999.0000    5.7873    4.5358    3.3369    0.0923
  5.278754    6.3698   7.1511   5.1274   5.8307   1.0432   1.0138   999.0000   999.0000   999.0000  999.0000    5.7873    4.5358    3.3369    0.0923
  5.301030    6.3674   7.1491   5.1254   5.8291   1.0432   1.0137   999.0000   999.0000   999.0000  999.0000    5.7855    4.5339    3.3354    0.0923
  5.397940    6.3514   7.1357   5.1125   5.8189   1.0427   1.0136   999.0000   999.0000   999.0000  999.0000    5.7736    4.5212    3.3255    0.0920
  5.477121    6.3393   7.1251   5.1026   5.8109   1.0423   1.0134   999.0000   999.0000   999.0000  999.0000    5.7645    4.5117    3.3180    0.0919
  5.544068    6.3284   7.1158   5.0938   5.8038   1.0420   1.0133   999.0000   999.0000   999.0000  999.0000    5.7563    4.5031    3.3113    0.0917
  5.602060    6.3178   7.1068   5.0851   5.7969   1.0417   1.0132   999.0000   999.0000   999.0000  999.0000    5.7484    4.4947    3.3047    0.0916
  5.653213    6.2981   7.0901   5.0692   5.7842   1.0411   1.0130   999.0000   999.0000   999.0000  999.0000    5.7338    4.4792    3.2925    0.0913
  5.698970    6.2855   7.0792   5.0590   5.7759   1.0407   1.0128   999.0000   999.0000   999.0000  999.0000    5.7243    4.4692    3.2847    0.0911
  5.740363    6.2689   7.0650   5.0455   5.7650   1.0403   1.0127   999.0000   999.0000   999.0000  999.0000    5.7118    4.4562    3.2745    0.0909
  5.778151    6.2537   7.0519   5.0331   5.7551   1.0398   1.0125   999.0000   999.0000   999.0000  999.0000    5.7003    4.4441    3.2650    0.0906
  5.812913    6.2417   7.0416   5.0234   5.7472   1.0395   1.0124   999.0000   999.0000   999.0000  999.0000    5.6913    4.4348    3.2577    0.0905
  5.845098    6.2241   7.0265   5.0091   5.7357   1.0390   1.0122   999.0000   999.0000   999.0000  999.0000    5.6782    4.4209    3.2469    0.0902
  5.875061    6.2027   7.0082   4.9917   5.7218   1.0383   1.0120   999.0000   999.0000   999.0000  999.0000    5.6622    4.4040    3.2336    0.0899
  5.903090    6.1892   6.9965   4.9808   5.7128   1.0380   1.0118   999.0000   999.0000   999.0000  999.0000    5.6521    4.3935    3.2254    0.0897
  5.929419    6.1674   6.9777   4.9630   5.6984   1.0373   1.0116   999.0000   999.0000   999.0000  999.0000    5.6358    4.3763    3.2120    0.0894
  5.954243    6.1464   6.9598   4.9460   5.6847   1.0367   1.0114   999.0000   999.0000   999.0000  999.0000    5.6201    4.3597    3.1990    0.0891
  5.977724    6.1311   6.9465   4.9336   5.6746   1.0363   1.0112   999.0000   999.0000   999.0000  999.0000    5.6086    4.3478    3.1896    0.0889
  6.000000    6.1149   6.9326   4.9204   5.6639   1.0358   1.0110   999.0000   999.0000   999.0000  999.0000    5.5965    4.3351    3.1797    0.0886
  6.041393    6.0759   6.8984   4.8887   5.6377   1.0347   1.0106   999.0000   999.0000   999.0000  999.0000    5.5670    4.3045    3.1559    0.0881
  6.079181    6.0427   6.8686   4.8618   5.6148   1.0338   1.0103   999.0000   999.0000   999.0000  999.0000    5.5416    4.2786    3.1356    0.0876
  6.113944    5.9965   6.8283   4.8243   5.5837   1.0324   1.0098   999.0000   999.0000   999.0000  999.0000    5.5066    4.2422    3.1073    0.0870
  6.146128    5.9548   6.7915   4.7904   5.5554   1.0312   1.0093   999.0000   999.0000   999.0000  999.0000    5.4749    4.2094    3.0817    0.0864
  6.176091    5.8695   6.7313   4.7214   5.5133   1.0296   1.0090   999.0000   999.0000   999.0000  999.0000    5.4366    4.1443    3.0314    0.0852
  6.204120    5.7608   6.6595   4.6332   5.4641   1.0272   1.0084   999.0000   999.0000   999.0000  999.0000    5.3879    4.0607    2.9667    0.0837
  6.230449    5.6607   6.5863   4.5519   5.4112   1.0245   1.0076   999.0000   999.0000   999.0000  999.0000    5.3288    3.9829    2.9065    0.0823
  6.255272    5.5822   6.5162   4.4881   5.3568   1.0221   1.0066   999.0000   999.0000   999.0000  999.0000    5.2652    3.9218    2.8593    0.0812
  6.278754    5.5305   6.4900   4.4464   5.3413   1.0209   1.0064   999.0000   999.0000   999.0000  999.0000    5.2490    3.8825    2.8291    0.0805
  6.301030    5.2920   6.3012   4.2525   5.2004   1.0143   1.0040   999.0000   999.0000   999.0000  999.0000    5.0879    3.6971    2.6862    0.0772
  6.322219    5.2717   6.2952   4.2363   5.1987   1.0137   1.0039   999.0000   999.0000   999.0000  999.0000    5.0835    3.6822    2.6750    0.0769
  6.342422    5.1322   6.1821   4.1231   5.1136   1.0098   1.0024   999.0000   999.0000   999.0000  999.0000    4.9861    3.5748    2.5927    0.0749
  6.361728    5.3675   6.3792   4.3146   5.2635   1.0161   1.0047   999.0000   999.0000   999.0000  999.0000    5.1569    3.7585    2.7342    0.0782
  6.380211    6.3589   7.2084   5.1240   5.8958   1.0444   1.0149   999.0000   999.0000   999.0000  999.0000    5.8836    4.5426    3.3462    0.0923
  6.397940    7.1194   7.8369   5.7482   6.3753   1.0674   1.0229   999.0000   999.0000   999.0000  999.0000    6.4455    5.1581    3.8370    0.1032
  6.414973    8.4311   8.9066   6.8309   7.1921   1.1099   1.0371   999.0000   999.0000   999.0000  999.0000    7.4240    6.2482    4.7296    0.1221
  6.431364    9.3729   9.6674   7.6134   7.7745   1.1428   1.0476   999.0000   999.0000   999.0000  999.0000    8.1390    7.0546    5.4098    0.1357
  6.447158   10.1308  10.2769   8.2464   8.2425   1.1710   1.0563   999.0000   999.0000   999.0000  999.0000    8.7238    7.7186    5.9833    0.1468
  6.462398   10.2206  10.3090   8.3481   8.2919   1.1775   1.0584   999.0000   999.0000   999.0000  999.0000    8.7866    7.8435    6.1182    0.1482
  6.477121    9.5077   9.5534   7.8742   7.8246   1.1650   1.0555   999.0000   999.0000   999.0000  999.0000    8.1948    7.4205    5.8694    0.1385
  6.491362    5.4500   4.0775   4.7260   4.2069   1.3029   1.1829   999.0000   999.0000   999.0000  999.0000    5.6873    5.7130    4.0530    0.1743
  6.505150    4.1056   2.4144   3.7110   3.1474   1.3545   1.2342   999.0000   999.0000   999.0000  999.0000    4.7354    5.0533    3.3876    0.1890
  6.518514    4.3737   2.9290   3.9331   3.4624   1.3197   1.2060   999.0000   999.0000   999.0000  999.0000    4.8046    5.0308    3.5212    0.1762
  6.531479    5.3113   4.2175   4.7137   4.3493   1.2612   1.1588   999.0000   999.0000   999.0000  999.0000    5.3880    5.4229    4.0346    0.1595
  6.544068    5.7728   5.0885   5.1295   4.9337   1.2205   1.1272   999.0000   999.0000   999.0000  999.0000    5.5927    5.5226    4.2835    0.1480
  6.556303    6.3383   5.8997   5.5740   5.4591   1.1896   1.1000   999.0000   999.0000   999.0000  999.0000    5.9075    5.7156    4.5418    0.1364
  6.568202    6.7308   6.4604   5.8744   5.8212   1.1706   1.0835   999.0000   999.0000   999.0000  999.0000    6.1170    5.8451    4.7015    0.1294
  6.579783    6.8953   6.7260   6.0253   6.0156   1.1582   1.0743   999.0000   999.0000   999.0000  999.0000    6.2004    5.8983    4.7923    0.1255
  6.591064    6.9450   6.6759   6.0320   5.9658   1.1688   1.0803   999.0000   999.0000   999.0000  999.0000    6.2875    5.9769    4.8008    0.1292
  6.602060    7.1555   6.9605   6.2010   6.1504   1.1533   1.0668   999.0000   999.0000   999.0000  999.0000    6.4044    6.0609    4.9097    0.1216
  6.612784    7.5836   7.5672   6.5389   6.5568   1.1353   1.0512   999.0000   999.0000   999.0000  999.0000    6.6467    6.2255    5.0946    0.1156
  6.623249    7.7624   7.7773   6.6683   6.6935   1.1346   1.0495   999.0000   999.0000   999.0000  999.0000    6.7760    6.3225    5.1661    0.1164
  6.633469    7.8922   7.9102   6.7578   6.7777   1.1365   1.0497   999.0000   999.0000   999.0000  999.0000    6.8807    6.4028    5.2172    0.1179
  6.643453    7.9695   7.9902   6.8113   6.8284   1.1373   1.0496   999.0000   999.0000   999.0000  999.0000    6.9420    6.4496    5.2478    0.1186
  6.653213    8.0073   8.0273   6.8368   6.8515   1.1380   1.0497   999.0000   999.0000   999.0000  999.0000    6.9729    6.4735    5.2624    0.1191
  6.662758    8.1005   8.1205   6.9003   6.9102   1.1397   1.0501   999.0000   999.0000   999.0000  999.0000    7.0487    6.5318    5.2987    0.1203
  6.672098    8.1778   8.1992   6.9533   6.9601   1.1410   1.0504   999.0000   999.0000   999.0000  999.0000    7.1113    6.5800    5.3288    0.1213
  6.681241    8.2710   8.2938   7.0171   7.0200   1.1427   1.0508   999.0000   999.0000   999.0000  999.0000    7.1866    6.6381    5.3651    0.1225
  6.690196    8.3545   8.3791   7.0744   7.0742   1.1442   1.0511   999.0000   999.0000   999.0000  999.0000    7.2539    6.6899    5.3978    0.1236
  6.698970    8.3827   8.4078   7.0936   7.0922   1.1446   1.0512   999.0000   999.0000   999.0000  999.0000    7.2764    6.7071    5.4087    0.1239
  6.720160    8.5073   8.5320   7.1782   7.1702   1.1472   1.0519   999.0000   999.0000   999.0000  999.0000    7.3784    6.7857    5.4573    0.1256
  6.740363    8.6342   8.6593   7.2649   7.2507   1.1497   1.0525   999.0000   999.0000   999.0000  999.0000    7.4821    6.8658    5.5075    0.1274
  6.759668    8.8236   8.8482   7.3944   7.3702   1.1537   1.0536   999.0000   999.0000   999.0000  999.0000    7.6380    6.9870    5.5831    0.1300
  6.778151    9.0123   9.0384   7.5239   7.4908   1.1574   1.0546   999.0000   999.0000   999.0000  999.0000    7.7924    7.1068    5.6590    0.1326
  6.795880    9.1514   9.1781   7.6192   7.5791   1.1604   1.0554   999.0000   999.0000   999.0000  999.0000    7.9066    7.1955    5.7152    0.1346
  6.812913    9.2935   9.3211   7.7166   7.6694   1.1634   1.0563   999.0000   999.0000   999.0000  999.0000    8.0233    7.2861    5.7729    0.1366
  6.829304    9.4814   9.5112   7.8462   7.7902   1.1673   1.0572   999.0000   999.0000   999.0000  999.0000    8.1770    7.4057    5.8503    0.1391
  6.845098    9.5779   9.6077   7.9127   7.8517   1.1693   1.0577   999.0000   999.0000   999.0000  999.0000    8.2562    7.4675    5.8905    0.1404
  6.860338    9.6732   9.7074   7.9789   7.9152   1.1710   1.0581   999.0000   999.0000   999.0000  999.0000    8.3323    7.5267    5.9296    0.1416
  6.875061    9.7736   9.8118   8.0485   7.9817   1.1729   1.0585   999.0000   999.0000   999.0000  999.0000    8.4129    7.5894    5.9710    0.1429
  6.903090   10.0288  10.0754   8.2254   8.1494   1.1779   1.0596   999.0000   999.0000   999.0000  999.0000    8.6188    7.7501    6.0773    0.1462
  6.929419   10.0935  10.1413   8.2695   8.1906   1.1793   1.0599   999.0000   999.0000   999.0000  999.0000    8.6708    7.7906    6.1038    0.1471
  6.954243   10.1044  10.1504   8.2760   8.1955   1.1798   1.0602   999.0000   999.0000   999.0000  999.0000    8.6802    7.7978    6.1076    0.1473
  6.977724   10.1057  10.1493   8.2756   8.1938   1.1802   1.0604   999.0000   999.0000   999.0000  999.0000    8.6818    7.7989    6.1073    0.1474
  7.000000    9.9840  10.0223   8.1899   8.1117   1.1779   1.0599   999.0000   999.0000   999.0000  999.0000    8.5831    7.7213    6.0551    0.1458
  7.021189    9.7201   9.7467   8.0054   7.9351   1.1732   1.0591   999.0000   999.0000   999.0000  999.0000    8.3702    7.5549    5.9442    0.1424
  7.041393    9.3909   9.4055   7.7763   7.7171   1.1672   1.0578   999.0000   999.0000   999.0000  999.0000    8.1031    7.3465    5.8076    0.1381
  7.060698    9.2982   9.3100   7.7115   7.6557   1.1655   1.0575   999.0000   999.0000   999.0000  999.0000    8.0274    7.2874    5.7688    0.1369
  7.079181    9.3425   9.3525   7.7413   7.6821   1.1667   1.0579   999.0000   999.0000   999.0000  999.0000    8.0648    7.3166    5.7867    0.1376
  7.096910    9.3609   9.3687   7.7529   7.6918   1.1674   1.0582   999.0000   999.0000   999.0000  999.0000    8.0807    7.3290    5.7936    0.1380
  7.113944    9.2214   9.2288   7.6560   7.6020   1.1645   1.0575   999.0000   999.0000   999.0000  999.0000    7.9649    7.2384    5.7352    0.1360
  7.130334    9.1085   9.1139   7.5777   7.5286   1.1623   1.0570   999.0000   999.0000   999.0000  999.0000    7.8720    7.1658    5.6886    0.1345
  7.146128    9.0765   9.0807   7.5553   7.5071   1.1618   1.0569   999.0000   999.0000   999.0000  999.0000    7.8458    7.1453    5.6753    0.1341
  7.161368    9.1666   9.1702   7.6169   7.5636   1.1638   1.0574   999.0000   999.0000   999.0000  999.0000    7.9203    7.2032    5.7119    0.1353
  7.176091    9.1646   9.1673   7.6149   7.5612   1.1639   1.0575   999.0000   999.0000   999.0000  999.0000    7.9185    7.2016    5.7105    0.1353
  7.204120    8.7603   8.7649   7.3363   7.3051   1.1553   1.0551   999.0000   999.0000   999.0000  999.0000    7.5823    6.9395    5.5448    0.1296
  7.230449    8.5969   8.6021   7.2235   7.2012   1.1520   1.0543   999.0000   999.0000   999.0000  999.0000    7.4464    6.8339    5.4782    0.1273
  7.255272    8.7596   8.7648   7.3339   7.3035   1.1554   1.0553   999.0000   999.0000   999.0000  999.0000    7.5795    6.9370    5.5419    0.1296
  7.278754    8.8382   8.8432   7.3867   7.3523   1.1572   1.0559   999.0000   999.0000   999.0000  999.0000    7.6436    6.9866    5.5722    0.1308
  7.301030    8.5898   8.5922   7.2155   7.1926   1.1524   1.0547   999.0000   999.0000   999.0000  999.0000    7.4398    6.8284    5.4721    0.1274
  7.322219    8.3647   8.3631   7.0602   7.0467   1.1484   1.0538   999.0000   999.0000   999.0000  999.0000    7.2560    6.6861    5.3823    0.1244
  7.342422    8.2849   8.2816   7.0047   6.9944   1.1470   1.0535   999.0000   999.0000   999.0000  999.0000    7.1906    6.6353    5.3502    0.1233
  7.361728    8.2360   8.2309   6.9704   6.9618   1.1463   1.0534   999.0000   999.0000   999.0000  999.0000    7.1506    6.6043    5.3303    0.1227
  7.380211    8.2240   8.2167   6.9606   6.9517   1.1464   1.0536   999.0000   999.0000   999.0000  999.0000    7.1404    6.5960    5.3240    0.1226
  7.397940    8.2403   8.2302   6.9694   6.9586   1.1472   1.0540   999.0000   999.0000   999.0000  999.0000    7.1527    6.6048    5.3276    0.1230
  7.414973    8.2434   8.2326   6.9694   6.9587   1.1475   1.0542   999.0000   999.0000   999.0000  999.0000    7.1531    6.6043    5.3258    0.1231
  7.431364    8.2402   8.2275   6.9652   6.9543   1.1478   1.0545   999.0000   999.0000   999.0000  999.0000    7.1494    6.6008    5.3220    0.1232
  7.447158    8.2414   8.2268   6.9644   6.9529   1.1482   1.0547   999.0000   999.0000   999.0000  999.0000    7.1497    6.6006    5.3204    0.1233
  7.462398    8.2530   8.2342   6.9712   6.9566   1.1491   1.0552   999.0000   999.0000   999.0000  999.0000    7.1625    6.6110    5.3247    0.1238
  7.477121    8.2505   8.2277   6.9685   6.9517   1.1498   1.0557   999.0000   999.0000   999.0000  999.0000    7.1638    6.6125    5.3235    0.1240
  7.491362    8.2228   8.1986   6.9495   6.9331   1.1497   1.0558   999.0000   999.0000   999.0000  999.0000    7.1437    6.5975    5.3129    0.1239
  7.505150    8.1921   8.1648   6.9293   6.9124   1.1496   1.0560   999.0000   999.0000   999.0000  999.0000    7.1234    6.5830    5.3026    0.1237
  7.518514    8.1661   8.1356   6.9123   6.8945   1.1497   1.0562   999.0000   999.0000   999.0000  999.0000    7.1069    6.5714    5.2940    0.1237
  7.531479    8.1536   8.1198   6.9009   6.8821   1.1502   1.0567   999.0000   999.0000   999.0000  999.0000    7.0976    6.5640    5.2866    0.1238
  7.544068    8.1818   8.1442   6.9146   6.8928   1.1516   1.0574   999.0000   999.0000   999.0000  999.0000    7.1184    6.5784    5.2920    0.1244
  7.556303    8.2100   8.1671   6.9276   6.9022   1.1533   1.0582   999.0000   999.0000   999.0000  999.0000    7.1396    6.5931    5.2968    0.1251
  7.568202    8.2311   8.1853   6.9389   6.9111   1.1542   1.0587   999.0000   999.0000   999.0000  999.0000    7.1562    6.6052    5.3020    0.1256
  7.579783    8.2317   8.1815   6.9387   6.9084   1.1546   1.0590   999.0000   999.0000   999.0000  999.0000    7.1594    6.6080    5.3026    0.1257
  7.591064    8.2371   8.1824   6.9421   6.9091   1.1551   1.0592   999.0000   999.0000   999.0000  999.0000    7.1665    6.6140    5.3055    0.1259
  7.602060    8.2479   8.1887   6.9494   6.9136   1.1556   1.0595   999.0000   999.0000   999.0000  999.0000    7.1780    6.6234    5.3107    0.1261
  7.628389    8.3005   8.2305   6.9856   6.9420   1.1573   1.0602   999.0000   999.0000   999.0000  999.0000    7.2269    6.6624    5.3341    0.1271
  7.653213    8.4063   8.3296   7.0581   7.0058   1.1598   1.0610   999.0000   999.0000   999.0000  999.0000    7.3174    6.7332    5.3775    0.1287
  7.676693    8.4496   8.3684   7.0864   7.0296   1.1612   1.0616   999.0000   999.0000   999.0000  999.0000    7.3550    6.7624    5.3941    0.1294
  7.698970    8.4317   8.3451   7.0758   7.0166   1.1613   1.0617   999.0000   999.0000   999.0000  999.0000    7.3461    6.7568    5.3902    0.1294
  7.728354    8.5066   8.4126   7.1236   7.0567   1.1639   1.0628   999.0000   999.0000   999.0000  999.0000    7.4100    6.8058    5.4178    0.1307
  7.755875    8.6805   8.5799   7.2318   7.1537   1.1691   1.0649   999.0000   999.0000   999.0000  999.0000    7.5465    6.9086    5.4760    0.1335
  7.778151    8.6588   8.5481   7.2149   7.1326   1.1701   1.0657   999.0000   999.0000   999.0000  999.0000    7.5340    6.8999    5.4674    0.1336
  7.845098    8.8004   8.6712   7.3107   7.2105   1.1755   1.0681   999.0000   999.0000   999.0000  999.0000    7.6676    7.0081    5.5271    0.1367
  7.903090    8.9411   8.7896   7.3909   7.2710   1.1819   1.0709   999.0000   999.0000   999.0000  999.0000    7.7859    7.0978    5.5690    0.1394
  7.954243    8.9233   8.7548   7.3719   7.2425   1.1843   1.0724   999.0000   999.0000   999.0000  999.0000    7.7818    7.0968    5.5592    0.1401
  8.000000    8.8799   8.6843   7.3404   7.1968   1.1866   1.0741   999.0000   999.0000   999.0000  999.0000    7.7635    7.0867    5.5460    0.1404
  8.041392    8.9576   8.7499   7.3805   7.2266   1.1904   1.0759   999.0000   999.0000   999.0000  999.0000    7.8239    7.1309    5.5646    0.1419
  8.079182    8.9612   8.7183   7.3767   7.1971   1.1951   1.0781   999.0000   999.0000   999.0000  999.0000    7.8491    7.1518    5.5709    0.1428
  8.146128    8.9971   8.7363   7.3843   7.1968   1.1993   1.0807   999.0000   999.0000   999.0000  999.0000    7.8779    7.1698    5.5674    0.1445
  8.204120    9.0353   8.7574   7.4079   7.2101   1.2022   1.0823   999.0000   999.0000   999.0000  999.0000    7.9212    7.2064    5.5831    0.1459
  8.255273    9.0372   8.7381   7.3904   7.1811   1.2066   1.0850   999.0000   999.0000   999.0000  999.0000    7.9220    7.2036    5.5665    0.1470
  8.301030    9.1016   8.7887   7.4350   7.2139   1.2101   1.0866   999.0000   999.0000   999.0000  999.0000    7.9901    7.2606    5.5961    0.1487
  8.352182    9.1910   8.8675   7.4783   7.2492   1.2149   1.0891   999.0000   999.0000   999.0000  999.0000    8.0546    7.3090    5.6126    0.1507
  8.397940    9.1956   8.8550   7.4754   7.2382   1.2182   1.0912   999.0000   999.0000   999.0000  999.0000    8.0682    7.3241    5.6100    0.1520
  8.439333    9.2101   8.8517   7.4728   7.2270   1.2220   1.0937   999.0000   999.0000   999.0000  999.0000    8.0839    7.3372    5.6037    0.1533
  8.477121    9.2528   8.8921   7.4987   7.2487   1.2238   1.0943   999.0000   999.0000   999.0000  999.0000    8.1192    7.3636    5.6175    0.1540
  8.544068    9.3567   8.9773   7.5371   7.2751   1.2321   1.0989   999.0000   999.0000   999.0000  999.0000    8.1916    7.4138    5.6197    0.1570
  8.602060    9.5061   9.1222   7.6071   7.3386   1.2396   1.1024   999.0000   999.0000   999.0000  999.0000    8.2890    7.4766    5.6349    0.1597
  8.653213    9.7239   9.3244   7.7169   7.4314   1.2505   1.1073   999.0000   999.0000   999.0000  999.0000    8.4436    7.5808    5.6729    0.1635
  8.698970    9.9689   9.5488   7.8437   7.5377   1.2635   1.1132   999.0000   999.0000   999.0000  999.0000    8.6245    7.7080    5.7207    0.1681
  8.740363   10.1649   9.7305   7.9179   7.6022   1.2764   1.1199   999.0000   999.0000   999.0000  999.0000    8.7420    7.7781    5.7213    0.1723
  8.778152   10.2133   9.7856   7.9306   7.6210   1.2789   1.1214   999.0000   999.0000   999.0000  999.0000    8.7620    7.7800    5.7058    0.1733
  8.812913   10.2546   9.8238   7.9338   7.6244   1.2825   1.1235   999.0000   999.0000   999.0000  999.0000    8.7771    7.7799    5.6872    0.1743
  8.845098   10.3016   9.8653   7.9569   7.6410   1.2854   1.1247   999.0000   999.0000   999.0000  999.0000    8.8168    7.8100    5.6950    0.1753
  8.875061   10.3480   9.9092   7.9272   7.6195   1.2968   1.1320   999.0000   999.0000   999.0000  999.0000    8.7872    7.7695    5.6396    0.1774
  8.903090   10.4052   9.9675   7.9761   7.6628   1.2968   1.1313   999.0000   999.0000   999.0000  999.0000    8.8486    7.8209    5.6740    0.1779
  8.929419   10.4557  10.0261   8.0049   7.6933   1.2970   1.1310   999.0000   999.0000   999.0000  999.0000    8.8849    7.8410    5.6806    0.1783
  8.954243   10.4126   9.9765   7.9366   7.6318   1.3030   1.1355   999.0000   999.0000   999.0000  999.0000    8.8106    7.7715    5.6150    0.1788
  9.000000   10.1438   9.6623   7.7044   7.3996   1.3129   1.1444   999.0000   999.0000   999.0000  999.0000    8.5844    7.5871    5.4433    0.1793
  9.041392    9.8129   9.2249   7.4965   7.1517   1.3183   1.1505   999.0000   999.0000   999.0000  999.0000    8.4306    7.4905    5.3188    0.1806
  9.079182    9.4979   8.8296   7.1975   6.8341   1.3341   1.1631   999.0000   999.0000   999.0000  999.0000    8.1868    7.2911    5.0807    0.1824
  9.113943    8.8019   8.0429   6.7006   6.3262   1.3418   1.1739   999.0000   999.0000   999.0000  999.0000    7.7101    6.9528    4.7802    0.1811
  9.146128    7.4107   6.3693   5.6553   5.2067   1.3704   1.2032   999.0000   999.0000   999.0000  999.0000    6.7612    6.2450    4.1508    0.1794
  9.176091    7.2554   6.2208   5.5613   5.1204   1.3661   1.2019   999.0000   999.0000   999.0000  999.0000    6.6527    6.1808    4.0941    0.1785
  9.204120    7.0060   5.9175   5.3771   4.9152   1.3689   1.2050   999.0000   999.0000   999.0000  999.0000    6.4839    6.0456    3.9844    0.1768
  9.230449    6.8964   5.7659   5.2969   4.8157   1.3714   1.2073   999.0000   999.0000   999.0000  999.0000    6.4238    6.0042    3.9410    0.1769
  9.255273    6.7891   5.6237   5.2070   4.7169   1.3766   1.2118   999.0000   999.0000   999.0000  999.0000    6.3440    5.9458    3.8807    0.1776
  9.278753    6.6534   5.4609   5.0917   4.6002   1.3824   1.2172   999.0000   999.0000   999.0000  999.0000    6.2290    5.8646    3.7976    0.1786
  9.301030    6.5235   5.3131   4.9983   4.5039   1.3856   1.2203   999.0000   999.0000   999.0000  999.0000    6.1349    5.7981    3.7395    0.1786
  9.322219    6.4204   5.1950   4.9305   4.4270   1.3850   1.2200   999.0000   999.0000   999.0000  999.0000    6.0702    5.7318    3.7019    0.1766
  9.342422    6.3199   5.0841   4.8539   4.3456   1.3848   1.2199   999.0000   999.0000   999.0000  999.0000    5.9908    5.6454    3.6503    0.1744
  9.361728    6.2245   4.9784   4.7754   4.2678   1.3871   1.2220   999.0000   999.0000   999.0000  999.0000    5.9063    5.5656    3.5931    0.1735
  9.380211    6.0873   4.8301   4.6639   4.1612   1.3906   1.2255   999.0000   999.0000   999.0000  999.0000    5.7822    5.4613    3.5122    0.1729
  9.397940    5.7978   4.4933   4.4534   3.9462   1.3971   1.2325   999.0000   999.0000   999.0000  999.0000    5.5688    5.2990    3.3797    0.1727
  9.414973    5.5820   4.2641   4.3036   3.8010   1.3995   1.2360   999.0000   999.0000   999.0000  999.0000    5.4055    5.1803    3.2863    0.1720
  9.447158    5.4485   4.1412   4.2185   3.7275   1.3989   1.2369   999.0000   999.0000   999.0000  999.0000    5.3000    5.1072    3.2343    0.1710
  9.477121    5.2601   3.9337   4.0835   3.6000   1.4040   1.2427   999.0000   999.0000   999.0000  999.0000    5.1483    5.0069    3.1457    0.1718
  9.511884    5.1491   3.8263   4.0004   3.5281   1.4060   1.2455   999.0000   999.0000   999.0000  999.0000    5.0416    4.9346    3.0858    0.1716
  9.544068    4.9581   3.6243   3.8779   3.4052   1.4060   1.2469   999.0000   999.0000   999.0000  999.0000    4.9089    4.8455    3.0188    0.1702
  9.574031    4.7697   3.4324   3.7620   3.2924   1.4051   1.2477   999.0000   999.0000   999.0000  999.0000    4.7787    4.7577    2.9568    0.1688
  9.602060    4.5063   3.1539   3.6017   3.1341   1.4055   1.2503   999.0000   999.0000   999.0000  999.0000    4.6054    4.6437    2.8736    0.1677
  9.628389    4.2443   2.8939   3.4458   2.9861   1.4041   1.2514   999.0000   999.0000   999.0000  999.0000    4.4272    4.5242    2.7931    0.1659
  9.653213    3.9295   2.5777   3.2535   2.8014   1.4026   1.2528   999.0000   999.0000   999.0000  999.0000    4.2091    4.3735    2.6908    0.1635
  9.676694    3.6337   2.2898   3.0760   2.6340   1.4007   1.2536   999.0000   999.0000   999.0000  999.0000    4.0035    4.2301    2.5978    0.1609
  9.698970    3.3158   1.9725   2.8863   2.4536   1.3999   1.2556   999.0000   999.0000   999.0000  999.0000    3.7875    4.0827    2.4992    0.1589
  9.720160    2.9665   1.6205   2.6809   2.2579   1.3999   1.2587   999.0000   999.0000   999.0000  999.0000    3.5548    3.9275    2.3943    0.1571
  9.740363    2.6622   1.3123   2.5015   2.0867   1.4004   1.2618   999.0000   999.0000   999.0000  999.0000    3.3516    3.7938    2.3022    0.1559
  9.759667    2.4094   1.0552   2.3509   1.9425   1.4010   1.2645   999.0000   999.0000   999.0000  999.0000    3.1804    3.6820    2.2235    0.1549
  9.778152    2.2158   0.8564   2.2319   1.8277   1.4016   1.2666   999.0000   999.0000   999.0000  999.0000    3.0450    3.5932    2.1585    0.1542
  9.795880    2.0898   0.7228   2.1477   1.7439   1.4023   1.2682   999.0000   999.0000   999.0000  999.0000    2.9504    3.5292    2.1086    0.1536
  9.812913    1.9934   0.6172   2.0792   1.6742   1.4033   1.2696   999.0000   999.0000   999.0000  999.0000    2.8745    3.4786    2.0657    0.1532
  9.829304    1.8959   0.5091   2.0102   1.6036   1.4047   1.2714   999.0000   999.0000   999.0000  999.0000    2.7984    3.4296    2.0223    0.1530
  9.845098    1.8064   0.4069   1.9479   1.5393   1.4064   1.2735   999.0000   999.0000   999.0000  999.0000    2.7303    3.3908    1.9844    0.1531
  9.860338    1.7170   0.3058   1.8859   1.4756   1.4081   1.2755   999.0000   999.0000   999.0000  999.0000    2.6620    3.3521    1.9463    0.1533
  9.875061    1.6294   0.2075   1.8247   1.4128   1.4096   1.2774   999.0000   999.0000   999.0000  999.0000    2.5940    3.3115    1.9081    0.1533
  9.889301    1.5568   0.1223   1.7738   1.3598   1.4114   1.2795   999.0000   999.0000   999.0000  999.0000    2.5396    3.2810    1.8761    0.1537
  9.903090    1.4928   0.0502   1.7289   1.3137   1.4127   1.2810   999.0000   999.0000   999.0000  999.0000    2.4901    3.2508    1.8477    0.1537
  9.916454    1.4406  -0.0138   1.6947   1.2778   1.4144   1.2830   999.0000   999.0000   999.0000  999.0000    2.4534    3.2389    1.8279    0.1546
  9.929419    1.3920  -0.0752   1.6631   1.2441   1.4164   1.2852   999.0000   999.0000   999.0000  999.0000    2.4203    3.2298    1.8103    0.1555
  9.942008    1.3472  -0.1326   1.6342   1.2129   1.4182   1.2873   999.0000   999.0000   999.0000  999.0000    2.3902    3.2219    1.7942    0.1563
  9.954243    1.3086  -0.1849   1.6095   1.1857   1.4203   1.2896   999.0000   999.0000   999.0000  999.0000    2.3660    3.2188    1.7804    0.1574
  9.966142    1.2799  -0.2288   1.5918   1.1651   1.4226   1.2921   999.0000   999.0000   999.0000  999.0000    2.3509    3.2228    1.7708    0.1588
  9.977724    1.2514  -0.2714   1.5740   1.1447   1.4248   1.2944   999.0000   999.0000   999.0000  999.0000    2.3354    3.2254    1.7610    0.1601
  9.989004    1.2291  -0.3032   1.5602   1.1295   1.4263   1.2961   999.0000   999.0000   999.0000  999.0000    2.3230    3.2279    1.7530    0.1611
 10.000000    1.2011  -0.3739   1.5444   1.0977   1.4325   1.3012   999.0000   999.0000   999.0000  999.0000    2.3229    3.2402    1.7498    0.1630
 10.010724    1.1859  -0.4295   1.5379   1.0755   1.4385   1.3061   999.0000   999.0000   999.0000  999.0000    2.3332    3.2603    1.7525    0.1649
 10.021190    1.1941  -0.4506   1.5464   1.0722   1.4428   1.3094   999.0000   999.0000   999.0000  999.0000    2.3572    3.2867    1.7625    0.1666
 10.031408    1.2231  -0.4408   1.5680   1.0856   1.4454   1.3114   999.0000   999.0000   999.0000  999.0000    2.3931    3.3195    1.7785    0.1680
 10.041392    1.2747  -0.3970   1.6039   1.1170   1.4463   1.3118   999.0000   999.0000   999.0000  999.0000    2.4415    3.3583    1.8011    0.1690
 10.051152    1.3467  -0.3207   1.6525   1.1649   1.4451   1.3105   999.0000   999.0000   999.0000  999.0000    2.4998    3.4000    1.8292    0.1695
 10.060698    1.4426  -0.2065   1.7159   1.2320   1.4416   1.3071   999.0000   999.0000   999.0000  999.0000    2.5696    3.4442    1.8644    0.1693
 10.070038    1.5625  -0.0541   1.7947   1.3192   1.4359   1.3019   999.0000   999.0000   999.0000  999.0000    2.6512    3.4926    1.9067    0.1686
 10.079182    1.7078   0.1399   1.8896   1.4280   1.4279   1.2947   999.0000   999.0000   999.0000  999.0000    2.7445    3.5450    1.9557    0.1673
 10.088136    1.7947   0.1811   1.9438   1.4584   1.4320   1.2971   999.0000   999.0000   999.0000  999.0000    2.8378    3.6222    1.9931    0.1696
 10.096910    1.8645   0.1845   1.9873   1.4702   1.4392   1.3019   999.0000   999.0000   999.0000  999.0000    2.9279    3.7015    2.0276    0.1728
 10.105510    1.9389   0.2007   2.0334   1.4878   1.4453   1.3059   999.0000   999.0000   999.0000  999.0000    3.0173    3.7774    2.0625    0.1755
 10.113943    2.0181   0.2298   2.0824   1.5113   1.4504   1.3089   999.0000   999.0000   999.0000  999.0000    3.1062    3.8502    2.0979    0.1779
 10.122216    2.1018   0.2705   2.1340   1.5403   1.4544   1.3112   999.0000   999.0000   999.0000  999.0000    3.1943    3.9205    2.1338    0.1799
 10.130334    2.1898   0.3233   2.1881   1.5747   1.4574   1.3126   999.0000   999.0000   999.0000  999.0000    3.2814    3.9875    2.1699    0.1816
 10.138303    2.2825   0.3882   2.2448   1.6146   1.4593   1.3131   999.0000   999.0000   999.0000  999.0000    3.3675    4.0512    2.2062    0.1829
 10.146128    2.3805   0.4665   2.3049   1.6609   1.4601   1.3127   999.0000   999.0000   999.0000  999.0000    3.4532    4.1122    2.2433    0.1839
