#                                                     Mon Jul 29 20:41:13 2019
#          I------------------------------------------------------------------------------------------------------------------------I
#          I                                                                                                                        I
#          I      BC_GALAXEV  ---  MODEL PARAMETERS:   Generic file name for this model = cb2018_z008_chab_hr_pmiles_ssp            I
#          I                                                                                                                        I
#          I      TRACKS: Padova 2013 + Marigo 2013, X=0.729, Y=0.263, Z=0.008                                                      I
#          I                                                                                                                        I
#          I      S.F.R.: SSP = Zero Length Burst at t = 0                                                                          I
#          I                                                                                                                        I
#          I                                                                                                                        I
#          I      I.M.F.: Lognormal + power law                                                                                     I
#          I                                                                      mass in      number                               I
#          I                                                  from m     to m     segment    of stars      c                        I
#          I                                        lognormal   0.10     1.00      0.4057      1.3076                               I
#          I                                          x=1.3     1.00   100.00      0.5943      0.1827                               I
#          I                                                                                                                        I
#          I                                                           totals      1.0000      1.4903  0.6710 Mo/star               I
#          I                                                                                                                        I
#          I                                                                                                                        I
#          I                                                                                                                        I
#          I                                                                                                                        I
#          I      LISTED: Rest frame properties                                                                                     I
#          I                                                                                                                        I
#          I                                                                                                                        I
#          I                              (C) 1995-2017 G. Bruzual A. & S. Charlot - All Rights Reserved                            I
#          I------------------------------------------------------------------------------------------------------------------------I
#
#    (1)        (2)      (3)      (4)      (5)      (6)      (7)       (8)        (9)        (10)      (11)      (12)      (13)      (14)      (15)
#
# Index_No.    WO-1:    WO-2:    WO-3:    WO-4:    GC-1:    4000A    DTT-Ca1    DTT-Ca2    DTT-Ca3   DTT-MgI     DM-04     DM-04     DM-04       BH:
# log-age    HdeltaA  HgammaA  HdeltaF  HgammaF  D(4000)    B4_VN   CaII8498   CaII8542   CaII8662   MgI8807   H8_3889   H9_3835  H10_3798     BH-HK
#   (yr)        (A)      (A)      (A)      (A)       .        .         (A)        (A)        (A)       (A)       (A)       (A)       (A)        (A)
  4.000000    5.7091   5.9117   4.9941   5.2540   1.0667   1.0212   999.0000   999.0000   999.0000  999.0000    5.5474    4.9329    3.9045    0.0742
  4.301030    5.7091   5.9117   4.9941   5.2540   1.0667   1.0212   999.0000   999.0000   999.0000  999.0000    5.5474    4.9329    3.9045    0.0742
  4.477121    5.7091   5.9117   4.9941   5.2540   1.0667   1.0212   999.0000   999.0000   999.0000  999.0000    5.5474    4.9329    3.9045    0.0742
  4.602060    5.7091   5.9117   4.9941   5.2540   1.0667   1.0212   999.0000   999.0000   999.0000  999.0000    5.5474    4.9329    3.9045    0.0742
  4.698970    5.7091   5.9117   4.9941   5.2540   1.0667   1.0212   999.0000   999.0000   999.0000  999.0000    5.5474    4.9329    3.9045    0.0742
  4.778151    5.7091   5.9117   4.9941   5.2540   1.0667   1.0212   999.0000   999.0000   999.0000  999.0000    5.5474    4.9329    3.9045    0.0742
  4.845098    5.7026   5.9105   4.9884   5.2532   1.0665   1.0211   999.0000   999.0000   999.0000  999.0000    5.5433    4.9268    3.8993    0.0741
  4.903090    5.6639   5.8970   4.9537   5.2425   1.0650   1.0206   999.0000   999.0000   999.0000  999.0000    5.5193    4.8907    3.8688    0.0737
  4.954243    5.6552   5.8964   4.9458   5.2425   1.0647   1.0205   999.0000   999.0000   999.0000  999.0000    5.5161    4.8835    3.8630    0.0736
  5.000000    5.6593   5.8995   4.9497   5.2453   1.0648   1.0206   999.0000   999.0000   999.0000  999.0000    5.5195    4.8879    3.8668    0.0736
  5.060698    5.6589   5.8995   4.9493   5.2454   1.0648   1.0206   999.0000   999.0000   999.0000  999.0000    5.5193    4.8876    3.8666    0.0736
  5.113944    5.6477   5.8920   4.9394   5.2390   1.0644   1.0204   999.0000   999.0000   999.0000  999.0000    5.5106    4.8773    3.8579    0.0735
  5.161368    5.8539   6.0432   5.1231   5.3687   1.0725   1.0232   999.0000   999.0000   999.0000  999.0000    5.6741    5.0812    4.0319    0.0760
  5.204120    5.8571   6.0456   5.1261   5.3709   1.0727   1.0233   999.0000   999.0000   999.0000  999.0000    5.6768    5.0846    4.0350    0.0760
  5.243038    5.8626   6.0502   5.1315   5.3753   1.0729   1.0233   999.0000   999.0000   999.0000  999.0000    5.6818    5.0913    4.0411    0.0761
  5.255272    5.8617   6.0497   5.1308   5.3750   1.0728   1.0233   999.0000   999.0000   999.0000  999.0000    5.6811    5.0907    4.0406    0.0760
  5.278754    5.8596   6.0484   5.1290   5.3740   1.0727   1.0233   999.0000   999.0000   999.0000  999.0000    5.6796    5.0892    4.0394    0.0760
  5.301030    5.8608   6.0493   5.1302   5.3749   1.0728   1.0233   999.0000   999.0000   999.0000  999.0000    5.6807    5.0907    4.0408    0.0760
  5.397940    5.8565   6.0466   5.1266   5.3727   1.0726   1.0232   999.0000   999.0000   999.0000  999.0000    5.6775    5.0873    4.0380    0.0760
  5.477121    5.8515   6.0432   5.1223   5.3699   1.0724   1.0231   999.0000   999.0000   999.0000  999.0000    5.6736    5.0829    4.0344    0.0759
  5.544068    5.8395   6.0343   5.1118   5.3624   1.0719   1.0230   999.0000   999.0000   999.0000  999.0000    5.6639    5.0719    4.0250    0.0757
  5.602060    5.8390   6.0344   5.1116   5.3628   1.0719   1.0229   999.0000   999.0000   999.0000  999.0000    5.6638    5.0723    4.0255    0.0757
  5.653213    5.9945   6.1502   5.2505   5.4626   1.0781   1.0251   999.0000   999.0000   999.0000  999.0000    5.7889    5.2278    4.1593    0.0776
  5.698970    6.0232   6.1717   5.2763   5.4812   1.0793   1.0254   999.0000   999.0000   999.0000  999.0000    5.8120    5.2571    4.1847    0.0779
  5.740363    6.0142   6.1652   5.2684   5.4757   1.0789   1.0253   999.0000   999.0000   999.0000  999.0000    5.8048    5.2487    4.1775    0.0778
  5.778151    6.0086   6.1617   5.2636   5.4728   1.0787   1.0252   999.0000   999.0000   999.0000  999.0000    5.8005    5.2436    4.1732    0.0778
  5.812913    6.0436   6.1889   5.2949   5.4962   1.0801   1.0257   999.0000   999.0000   999.0000  999.0000    5.8291    5.2792    4.2040    0.0782
  5.845098    6.1843   6.2942   5.4204   5.5870   1.0858   1.0276   999.0000   999.0000   999.0000  999.0000    5.9433    5.4204    4.3262    0.0799
  5.875061    6.2235   6.3246   5.4555   5.6134   1.0874   1.0282   999.0000   999.0000   999.0000  999.0000    5.9756    5.4605    4.3611    0.0804
  5.903090    6.4218   6.4743   5.6324   5.7423   1.0957   1.0310   999.0000   999.0000   999.0000  999.0000    6.1382    5.6608    4.5355    0.0828
  5.929419    6.4703   6.5125   5.6758   5.7754   1.0977   1.0317   999.0000   999.0000   999.0000  999.0000    6.1788    5.7105    4.5790    0.0834
  5.954243    6.7298   6.7122   5.9073   5.9477   1.1088   1.0354   999.0000   999.0000   999.0000  999.0000    6.3954    5.9755    4.8119    0.0866
  5.977724    6.7370   6.7177   5.9139   5.9526   1.1091   1.0355   999.0000   999.0000   999.0000  999.0000    6.4015    5.9832    4.8189    0.0867
  6.000000    6.8935   6.8391   6.0539   6.0578   1.1159   1.0377   999.0000   999.0000   999.0000  999.0000    6.5339    6.1449    4.9622    0.0886
  6.041393    6.9011   6.8448   6.0611   6.0631   1.1162   1.0378   999.0000   999.0000   999.0000  999.0000    6.5406    6.1534    4.9701    0.0887
  6.079181    6.8992   6.8430   6.0601   6.0621   1.1161   1.0378   999.0000   999.0000   999.0000  999.0000    6.5395    6.1526    4.9698    0.0887
  6.113944    6.8976   6.8414   6.0592   6.0613   1.1160   1.0377   999.0000   999.0000   999.0000  999.0000    6.5384    6.1519    4.9696    0.0886
  6.146128    6.8966   6.8405   6.0587   6.0608   1.1160   1.0377   999.0000   999.0000   999.0000  999.0000    6.5378    6.1514    4.9695    0.0886
  6.176091    6.8952   6.8391   6.0580   6.0601   1.1159   1.0377   999.0000   999.0000   999.0000  999.0000    6.5369    6.1508    4.9693    0.0886
  6.204120    6.8926   6.8367   6.0566   6.0588   1.1158   1.0376   999.0000   999.0000   999.0000  999.0000    6.5353    6.1497    4.9689    0.0885
  6.230449    6.8886   6.8329   6.0545   6.0567   1.1156   1.0375   999.0000   999.0000   999.0000  999.0000    6.5328    6.1480    4.9684    0.0884
  6.255272    6.8871   6.8314   6.0537   6.0560   1.1155   1.0374   999.0000   999.0000   999.0000  999.0000    6.5319    6.1473    4.9682    0.0883
  6.278754    6.8851   6.8294   6.0526   6.0549   1.1154   1.0374   999.0000   999.0000   999.0000  999.0000    6.5306    6.1464    4.9679    0.0883
  6.301030    6.8823   6.8268   6.0512   6.0535   1.1153   1.0373   999.0000   999.0000   999.0000  999.0000    6.5288    6.1452    4.9675    0.0882
  6.322219    6.8794   6.8240   6.0496   6.0520   1.1152   1.0372   999.0000   999.0000   999.0000  999.0000    6.5271    6.1440    4.9671    0.0881
  6.342422    6.8759   6.8207   6.0478   6.0502   1.1150   1.0371   999.0000   999.0000   999.0000  999.0000    6.5249    6.1425    4.9667    0.0881
  6.361728    6.8713   6.8163   6.0454   6.0479   1.1148   1.0370   999.0000   999.0000   999.0000  999.0000    6.5220    6.1405    4.9660    0.0879
  6.380211    6.6972   6.6594   5.8921   5.9228   1.1097   1.0347   999.0000   999.0000   999.0000  999.0000    6.3707    5.9773    4.8460    0.0859
  6.397940    6.3746   6.3688   5.6075   5.6905   1.1004   1.0306   999.0000   999.0000   999.0000  999.0000    6.0909    5.6748    4.6242    0.0823
  6.414973    5.8155   5.8652   5.1138   5.2875   1.0847   1.0235   999.0000   999.0000   999.0000  999.0000    5.6090    5.1522    4.2449    0.0760
  6.431364    5.3060   5.4058   4.6650   4.9208   1.0709   1.0171   999.0000   999.0000   999.0000  999.0000    5.1744    4.6802    3.9073    0.0703
  6.447158    4.8032   4.9524   4.2225   4.5590   1.0578   1.0110   999.0000   999.0000   999.0000  999.0000    4.7492    4.2174    3.5802    0.0646
  6.462398    4.4168   4.6039   3.8821   4.2806   1.0479   1.0063   999.0000   999.0000   999.0000  999.0000    4.4244    3.8627    3.3320    0.0603
  6.477121    4.1244   4.3401   3.6249   4.0702   1.0407   1.0029   999.0000   999.0000   999.0000  999.0000    4.1802    3.5957    3.1467    0.0571
  6.491362    4.1009   3.8338   3.4637   3.6429   1.0623   1.0205   999.0000   999.0000   999.0000  999.0000    4.0659    3.7265    3.1925    0.0645
  6.505150    3.8667   3.1823   3.1836   3.1268   1.0683   1.0286   999.0000   999.0000   999.0000  999.0000    3.9504    3.7235    3.1720    0.0632
  6.518514    3.9208   3.1623   3.2225   3.1250   1.0747   1.0334   999.0000   999.0000   999.0000  999.0000    3.9901    3.7692    3.2072    0.0643
  6.531479    4.0558   3.2694   3.3607   3.2602   1.0813   1.0369   999.0000   999.0000   999.0000  999.0000    4.1112    3.9138    3.2942    0.0678
  6.544068    4.5397   3.7846   3.7295   3.6376   1.0944   1.0426   999.0000   999.0000   999.0000  999.0000    4.4803    4.2258    3.4711    0.0763
  6.556303    4.8001   4.0040   3.9947   3.9267   1.1284   1.0655   999.0000   999.0000   999.0000  999.0000    4.8096    4.5802    3.6672    0.0931
  6.568202    5.4954   4.7128   4.5461   4.5092   1.1768   1.0947   999.0000   999.0000   999.0000  999.0000    5.4123    5.1362    3.9492    0.1168
  6.579783    5.4889   4.9300   4.6359   4.7114   1.1630   1.0842   999.0000   999.0000   999.0000  999.0000    5.4267    5.0547    3.9316    0.1116
  6.591064    5.0448   4.2500   4.4604   4.4131   1.1996   1.1139   999.0000   999.0000   999.0000  999.0000    5.3740    5.1380    3.9608    0.1210
  6.602060    4.3043   3.2188   4.0024   3.6358   1.2069   1.1265   999.0000   999.0000   999.0000  999.0000    5.0660    4.8589    3.8318    0.1127
  6.612784    3.7346   2.5426   3.6254   3.1233   1.1956   1.1234   999.0000   999.0000   999.0000  999.0000    4.7351    4.5544    3.6822    0.1008
  6.623249    3.7553   2.5558   3.6905   3.1460   1.2057   1.1304   999.0000   999.0000   999.0000  999.0000    4.8690    4.6539    3.7447    0.1024
  6.633469    3.6002   2.2594   3.6233   2.9625   1.2324   1.1520   999.0000   999.0000   999.0000  999.0000    4.9191    4.7693    3.7865    0.1091
  6.643453    3.4784   2.0756   3.5376   2.8995   1.2765   1.1858   999.0000   999.0000   999.0000  999.0000    4.9473    4.9344    3.7824    0.1252
  6.653213    4.1748   2.9291   3.9253   3.5155   1.2967   1.1931   999.0000   999.0000   999.0000  999.0000    5.3109    5.2946    3.9049    0.1405
  6.662758    4.6948   3.5338   4.2975   3.9735   1.3182   1.2028   999.0000   999.0000   999.0000  999.0000    5.6666    5.6248    4.0467    0.1536
  6.672098    4.4859   3.2363   4.2197   3.8213   1.3526   1.2289   999.0000   999.0000   999.0000  999.0000    5.6958    5.7151    4.0478    0.1621
  6.681241    4.4166   3.0940   4.1822   3.7122   1.3703   1.2427   999.0000   999.0000   999.0000  999.0000    5.7470    5.7501    4.0702    0.1645
  6.690196    4.3540   3.0310   4.1361   3.7004   1.3689   1.2429   999.0000   999.0000   999.0000  999.0000    5.7135    5.7030    4.0909    0.1630
  6.698970    4.0927   2.7684   4.0067   3.6325   1.3689   1.2449   999.0000   999.0000   999.0000  999.0000    5.5489    5.6886    4.0686    0.1635
  6.720160    4.2428   3.0285   4.2007   4.0663   1.3528   1.2294   999.0000   999.0000   999.0000  999.0000    5.5016    5.9420    4.1451    0.1696
  6.740363    4.1292   2.8048   4.1578   3.7070   1.3676   1.2385   999.0000   999.0000   999.0000  999.0000    5.5501    6.0824    4.0427    0.1679
  6.759668    6.2117   5.1339   5.3506   4.9902   1.3486   1.2069   999.0000   999.0000   999.0000  999.0000    6.6541    6.5446    4.4896    0.1724
  6.778151    6.0290   4.8639   5.2523   4.8145   1.3491   1.2103   999.0000   999.0000   999.0000  999.0000    6.6440    6.4327    4.5740    0.1681
  6.795880    5.2111   3.8215   4.8272   4.1578   1.3545   1.2220   999.0000   999.0000   999.0000  999.0000    6.3561    6.2573    4.5309    0.1593
  6.812913    6.8758   5.7258   5.9237   5.3513   1.2535   1.1317   999.0000   999.0000   999.0000  999.0000    6.9657    6.4668    4.9205    0.1357
  6.829304    7.4773   6.7521   6.2702   5.9651   1.2316   1.1130   999.0000   999.0000   999.0000  999.0000    7.1619    6.5775    4.9934    0.1369
  6.845098    7.7238   7.0561   6.4259   6.1539   1.2323   1.1114   999.0000   999.0000   999.0000  999.0000    7.2885    6.6833    5.0463    0.1390
  6.860338    7.9228   7.2966   6.5657   6.3095   1.2301   1.1078   999.0000   999.0000   999.0000  999.0000    7.4002    6.7827    5.1057    0.1396
  6.875061    8.0593   7.4721   6.6612   6.4226   1.2283   1.1055   999.0000   999.0000   999.0000  999.0000    7.4759    6.8502    5.1482    0.1397
  6.903090    8.0154   7.4674   6.5591   6.3795   1.2317   1.1096   999.0000   999.0000   999.0000  999.0000    7.3726    6.7257    5.0321    0.1410
  6.929419    7.5797   7.0429   6.2171   6.0746   1.2159   1.1027   999.0000   999.0000   999.0000  999.0000    6.9942    6.3811    4.8062    0.1328
  6.954243    6.6452   6.1757   5.5691   5.4833   1.1675   1.0754   999.0000   999.0000   999.0000  999.0000    6.2372    5.7306    4.4416    0.1096
  6.977724    6.3866   6.0092   5.3858   5.3483   1.1419   1.0592   999.0000   999.0000   999.0000  999.0000    5.9789    5.4943    4.3235    0.0981
  7.000000    6.0426   5.7418   5.1252   5.1473   1.1242   1.0493   999.0000   999.0000   999.0000  999.0000    5.6851    5.2199    4.1574    0.0902
  7.021189    5.7612   5.5286   4.9222   4.9911   1.1098   1.0412   999.0000   999.0000   999.0000  999.0000    5.4589    5.0124    4.0397    0.0835
  7.041393    6.0722   5.8722   5.1220   5.2087   1.1183   1.0453   999.0000   999.0000   999.0000  999.0000    5.6574    5.1780    4.1207    0.0896
  7.060698    6.8119   6.6305   5.6742   5.7408   1.1423   1.0572   999.0000   999.0000   999.0000  999.0000    6.2444    5.6902    4.4374    0.1039
  7.079181    6.5354   6.3914   5.5075   5.5921   1.1299   1.0508   999.0000   999.0000   999.0000  999.0000    6.0758    5.5277    4.3695    0.0975
  7.096910    5.6539   5.4885   4.8905   4.9811   1.0995   1.0345   999.0000   999.0000   999.0000  999.0000    5.4192    4.9747    4.0523    0.0794
  7.113944    5.6518   5.4603   4.8848   4.9605   1.1007   1.0352   999.0000   999.0000   999.0000  999.0000    5.4119    4.9770    4.0495    0.0794
  7.130334    5.6733   5.4554   4.8954   4.9561   1.1032   1.0367   999.0000   999.0000   999.0000  999.0000    5.4241    4.9947    4.0547    0.0802
  7.146128    5.6988   5.4572   4.9126   4.9584   1.1056   1.0382   999.0000   999.0000   999.0000  999.0000    5.4438    5.0188    4.0667    0.0809
  7.161368    5.7609   5.5065   4.9589   4.9943   1.1087   1.0399   999.0000   999.0000   999.0000  999.0000    5.4927    5.0694    4.0965    0.0823
  7.176091    5.9526   5.6710   5.1004   5.1139   1.1190   1.0460   999.0000   999.0000   999.0000  999.0000    5.6536    5.2188    4.1803    0.0874
  7.204120    6.2146   5.8418   5.3229   5.2604   1.1359   1.0557   999.0000   999.0000   999.0000  999.0000    5.9224    5.4746    4.3429    0.0947
  7.230449    6.3814   5.8840   5.5100   5.3359   1.1474   1.0619   999.0000   999.0000   999.0000  999.0000    6.1523    5.7090    4.5223    0.0981
  7.255272    6.4612   5.7885   5.6944   5.3500   1.1544   1.0648   999.0000   999.0000   999.0000  999.0000    6.3816    5.9706    4.7645    0.0974
  7.278754    6.6969   5.9660   5.9225   5.5073   1.1647   1.0698   999.0000   999.0000   999.0000  999.0000    6.6417    6.2293    4.9601    0.1014
  7.301030    6.7000   5.9607   5.9250   5.5036   1.1657   1.0705   999.0000   999.0000   999.0000  999.0000    6.6480    6.2354    4.9621    0.1017
  7.322219    6.7153   5.9814   5.9353   5.5156   1.1659   1.0705   999.0000   999.0000   999.0000  999.0000    6.6559    6.2425    4.9651    0.1021
  7.342422    6.7272   6.0036   5.9455   5.5306   1.1665   1.0709   999.0000   999.0000   999.0000  999.0000    6.6763    6.2516    4.9780    0.1023
  7.361728    6.7317   5.9962   5.9454   5.5265   1.1681   1.0721   999.0000   999.0000   999.0000  999.0000    6.6817    6.2598    4.9778    0.1028
  7.380211    6.7386   5.9915   5.9446   5.5233   1.1695   1.0733   999.0000   999.0000   999.0000  999.0000    6.6814    6.2674    4.9725    0.1032
  7.397940    6.8023   6.0616   5.9761   5.5650   1.1746   1.0767   999.0000   999.0000   999.0000  999.0000    6.7271    6.3023    4.9775    0.1061
  7.414973    7.1611   6.4979   6.1879   5.8297   1.1845   1.0813   999.0000   999.0000   999.0000  999.0000    6.9413    6.4593    5.0399    0.1140
  7.431364    7.5109   6.9164   6.3941   6.0806   1.1944   1.0859   999.0000   999.0000   999.0000  999.0000    7.1526    6.6092    5.0995    0.1215
  7.447158    7.7787   7.2361   6.5534   6.2724   1.2014   1.0890   999.0000   999.0000   999.0000  999.0000    7.3116    6.7243    5.1470    0.1268
  7.462398    7.9960   7.5033   6.6838   6.4315   1.2057   1.0906   999.0000   999.0000   999.0000  999.0000    7.4366    6.8123    5.1854    0.1304
  7.477121    8.1915   7.7371   6.7957   6.5658   1.2080   1.0911   999.0000   999.0000   999.0000  999.0000    7.5323    6.8774    5.2118    0.1328
  7.491362    8.2702   7.8328   6.8367   6.6188   1.2093   1.0916   999.0000   999.0000   999.0000  999.0000    7.5648    6.9017    5.2177    0.1340
  7.505150    8.2397   7.8103   6.8226   6.6105   1.2095   1.0919   999.0000   999.0000   999.0000  999.0000    7.5558    6.8989    5.2210    0.1342
  7.518514    8.2096   7.7876   6.8086   6.6015   1.2099   1.0922   999.0000   999.0000   999.0000  999.0000    7.5494    6.8956    5.2255    0.1342
  7.531479    8.1880   7.7743   6.7969   6.5952   1.2102   1.0926   999.0000   999.0000   999.0000  999.0000    7.5448    6.8914    5.2300    0.1342
  7.544068    8.1727   7.7649   6.7858   6.5892   1.2105   1.0930   999.0000   999.0000   999.0000  999.0000    7.5354    6.8870    5.2296    0.1343
  7.556303    8.1639   7.7591   6.7758   6.5841   1.2106   1.0932   999.0000   999.0000   999.0000  999.0000    7.5201    6.8837    5.2229    0.1343
  7.568202    8.1572   7.7579   6.7686   6.5829   1.2105   1.0933   999.0000   999.0000   999.0000  999.0000    7.5095    6.8818    5.2188    0.1342
  7.579783    8.1300   7.7335   6.7527   6.5692   1.2099   1.0931   999.0000   999.0000   999.0000  999.0000    7.4950    6.8728    5.2169    0.1338
  7.591064    8.1067   7.7025   6.7363   6.5482   1.2101   1.0934   999.0000   999.0000   999.0000  999.0000    7.4839    6.8634    5.2108    0.1336
  7.602060    8.0990   7.6883   6.7303   6.5376   1.2109   1.0940   999.0000   999.0000   999.0000  999.0000    7.4848    6.8616    5.2073    0.1338
  7.628389    8.0901   7.6636   6.7197   6.5164   1.2127   1.0952   999.0000   999.0000   999.0000  999.0000    7.4888    6.8578    5.1977    0.1343
  7.653213    8.0551   7.6197   6.6981   6.4881   1.2133   1.0958   999.0000   999.0000   999.0000  999.0000    7.4754    6.8483    5.1894    0.1342
  7.676693    8.0401   7.6006   6.6868   6.4757   1.2130   1.0957   999.0000   999.0000   999.0000  999.0000    7.4638    6.8406    5.1853    0.1341
  7.698970    7.9962   7.5454   6.6582   6.4415   1.2123   1.0957   999.0000   999.0000   999.0000  999.0000    7.4382    6.8203    5.1740    0.1332
  7.728354    8.0804   7.6087   6.6826   6.4599   1.2199   1.1007   999.0000   999.0000   999.0000  999.0000    7.4771    6.8361    5.1557    0.1361
  7.755875    8.1608   7.6836   6.7190   6.4925   1.2260   1.1043   999.0000   999.0000   999.0000  999.0000    7.5301    6.8628    5.1575    0.1389
  7.778151    8.2005   7.7211   6.7434   6.5107   1.2296   1.1067   999.0000   999.0000   999.0000  999.0000    7.5642    6.8989    5.1633    0.1405
  7.845098    8.1851   7.6781   6.7063   6.4627   1.2333   1.1095   999.0000   999.0000   999.0000  999.0000    7.5380    6.8698    5.1235    0.1407
  7.903090    8.0743   7.5613   6.6152   6.3732   1.2362   1.1126   999.0000   999.0000   999.0000  999.0000    7.4691    6.8018    5.0786    0.1410
  7.954243    8.0661   7.5403   6.5806   6.3406   1.2405   1.1161   999.0000   999.0000   999.0000  999.0000    7.4342    6.7969    5.0560    0.1420
  8.000000    7.9417   7.4195   6.4994   6.2566   1.2421   1.1178   999.0000   999.0000   999.0000  999.0000    7.3887    6.7498    5.0436    0.1419
  8.041392    7.7610   7.2103   6.3731   6.1243   1.2450   1.1213   999.0000   999.0000   999.0000  999.0000    7.2819    6.7046    4.9854    0.1418
  8.079182    7.4766   6.8845   6.2198   5.9505   1.2441   1.1217   999.0000   999.0000   999.0000  999.0000    7.1560    6.6418    4.9239    0.1416
  8.146128    7.2286   6.4828   6.0906   5.7248   1.2523   1.1285   999.0000   999.0000   999.0000  999.0000    7.0747    6.6841    4.8651    0.1427
  8.204120    7.5155   6.7158   6.2730   5.8568   1.2657   1.1342   999.0000   999.0000   999.0000  999.0000    7.3048    6.8656    4.9302    0.1492
  8.255273    7.8649   7.0494   6.4989   6.0471   1.2837   1.1429   999.0000   999.0000   999.0000  999.0000    7.6187    7.1196    5.0398    0.1577
  8.301030    8.1999   7.3641   6.7283   6.2263   1.3033   1.1532   999.0000   999.0000   999.0000  999.0000    7.9085    7.3795    5.1528    0.1656
  8.352182    8.6553   7.8228   7.0067   6.5024   1.3185   1.1586   999.0000   999.0000   999.0000  999.0000    8.2247    7.5861    5.2905    0.1720
  8.397940    9.1394   8.3159   7.3163   6.8171   1.3303   1.1617   999.0000   999.0000   999.0000  999.0000    8.5431    7.8138    5.4412    0.1787
  8.439333    9.2989   8.4655   7.4355   6.9211   1.3445   1.1697   999.0000   999.0000   999.0000  999.0000    8.7176    7.9750    5.5498    0.1814
  8.477121    9.4474   8.6036   7.5325   7.0087   1.3553   1.1771   999.0000   999.0000   999.0000  999.0000    8.8455    8.1288    5.6149    0.1833
  8.544068    9.6245   8.7926   7.6480   7.1165   1.3768   1.1913   999.0000   999.0000   999.0000  999.0000    9.0654    8.3265    5.7110    0.1875
  8.602060    9.8312   8.9673   7.7086   7.1733   1.4027   1.2073   999.0000   999.0000   999.0000  999.0000    9.2130    8.3965    5.6715    0.1975
  8.653213    9.9666   9.0417   7.7103   7.1608   1.4312   1.2247   999.0000   999.0000   999.0000  999.0000    9.3353    8.4077    5.5744    0.2088
  8.698970    9.9717   8.9763   7.6158   7.0630   1.4573   1.2419   999.0000   999.0000   999.0000  999.0000    9.3230    8.3253    5.4378    0.2181
  8.740363    9.8125   8.7489   7.4487   6.8920   1.4744   1.2571   999.0000   999.0000   999.0000  999.0000    9.1932    8.2378    5.3353    0.2210
  8.778152    9.5958   8.4664   7.2422   6.6848   1.4937   1.2748   999.0000   999.0000   999.0000  999.0000    9.0164    8.1098    5.2030    0.2229
  8.812913    9.4636   8.2886   7.0679   6.5230   1.5101   1.2894   999.0000   999.0000   999.0000  999.0000    8.8295    7.9481    5.0478    0.2259
  8.845098    9.3030   8.0657   6.8826   6.3449   1.5278   1.3049   999.0000   999.0000   999.0000  999.0000    8.6232    7.7785    4.8666    0.2293
  8.875061    9.0682   7.8336   6.7061   6.1785   1.5350   1.3117   999.0000   999.0000   999.0000  999.0000    8.4575    7.6356    4.7503    0.2309
  8.903090    8.9044   7.6817   6.5618   6.0484   1.5429   1.3192   999.0000   999.0000   999.0000  999.0000    8.3273    7.5231    4.6720    0.2321
  8.929419    8.6445   7.3920   6.3613   5.8542   1.5535   1.3300   999.0000   999.0000   999.0000  999.0000    8.1458    7.4025    4.5683    0.2339
  8.954243    8.4441   7.1495   6.1967   5.6942   1.5632   1.3407   999.0000   999.0000   999.0000  999.0000    8.0009    7.3004    4.4764    0.2360
  9.000000    7.6408   6.2868   5.6824   5.1803   1.5760   1.3576   999.0000   999.0000   999.0000  999.0000    7.5162    6.9801    4.2208    0.2372
  9.041392    6.8512   5.5073   5.1747   4.7023   1.5835   1.3713   999.0000   999.0000   999.0000  999.0000    7.0253    6.6516    3.9843    0.2359
  9.079182    5.9927   4.5735   4.6607   4.1739   1.5928   1.3874   999.0000   999.0000   999.0000  999.0000    6.5062    6.3554    3.7277    0.2353
  9.113943    4.9932   3.4946   4.1141   3.5898   1.6025   1.4046   999.0000   999.0000   999.0000  999.0000    5.9654    6.0775    3.4759    0.2335
  9.146128    3.9269   2.4002   3.5651   3.0033   1.6112   1.4203   999.0000   999.0000   999.0000  999.0000    5.4276    5.7970    3.2423    0.2321
  9.176091    2.9841   1.2532   3.0686   2.3426   1.6554   1.4623   999.0000   999.0000   999.0000  999.0000    5.0497    5.6206    3.0815    0.2360
  9.204120    2.4497   0.6343   2.7642   1.9637   1.6832   1.4919   999.0000   999.0000   999.0000  999.0000    4.7936    5.5537    2.9538    0.2402
  9.230449    1.8593  -0.0729   2.4338   1.5058   1.7354   1.5340   999.0000   999.0000   999.0000  999.0000    4.5393    5.4602    2.8438    0.2430
  9.255273    2.6224   0.8576   2.8201   2.1306   1.6491   1.4673   999.0000   999.0000   999.0000  999.0000    4.6657    5.5535    2.9148    0.2385
  9.278753    2.4252   0.5986   2.6955   1.9841   1.6514   1.4734   999.0000   999.0000   999.0000  999.0000    4.4974    5.4916    2.8335    0.2395
  9.301030    2.1199   0.2079   2.5199   1.7459   1.6640   1.4876   999.0000   999.0000   999.0000  999.0000    4.3383    5.4308    2.7509    0.2417
  9.322219    1.8290  -0.1577   2.3560   1.5350   1.6721   1.4988   999.0000   999.0000   999.0000  999.0000    4.1822    5.3577    2.6798    0.2446
  9.342422    1.5522  -0.5136   2.2053   1.3463   1.6772   1.5075   999.0000   999.0000   999.0000  999.0000    4.0325    5.2890    2.6161    0.2478
  9.361728    1.3487  -0.7878   2.0992   1.2009   1.6867   1.5179   999.0000   999.0000   999.0000  999.0000    3.9410    5.2625    2.5580    0.2501
  9.380211    1.1741  -1.0294   2.0071   1.0615   1.6981   1.5295   999.0000   999.0000   999.0000  999.0000    3.8747    5.2414    2.4924    0.2519
  9.397940    1.0304  -1.2280   1.9292   0.9421   1.7085   1.5398   999.0000   999.0000   999.0000  999.0000    3.8336    5.2195    2.4334    0.2532
  9.414973    0.7461  -1.5836   1.7805   0.7230   1.7348   1.5644   999.0000   999.0000   999.0000  999.0000    3.7564    5.1875    2.3692    0.2556
  9.447158    0.1527  -2.3455   1.4821   0.2609   1.7965   1.6211   999.0000   999.0000   999.0000  999.0000    3.5797    5.1079    2.2636    0.2613
  9.477121    0.0546  -2.4650   1.4392   0.1883   1.8010   1.6260   999.0000   999.0000   999.0000  999.0000    3.5176    5.1139    2.2122    0.2621
  9.511884   -0.0155  -2.5601   1.4068   0.1284   1.8062   1.6317   999.0000   999.0000   999.0000  999.0000    3.4710    5.1282    2.1798    0.2632
  9.544068   -0.1025  -2.6822   1.3623   0.0564   1.8122   1.6378   999.0000   999.0000   999.0000  999.0000    3.4247    5.1315    2.1396    0.2640
  9.574031   -0.2467  -2.8716   1.2894  -0.0551   1.8236   1.6485   999.0000   999.0000   999.0000  999.0000    3.3471    5.1242    2.0828    0.2651
  9.602060   -0.4059  -3.0845   1.2060  -0.1822   1.8363   1.6609   999.0000   999.0000   999.0000  999.0000    3.2692    5.1099    2.0212    0.2662
  9.628389   -0.5066  -3.2254   1.1514  -0.2682   1.8419   1.6671   999.0000   999.0000   999.0000  999.0000    3.2179    5.1089    1.9793    0.2666
  9.653213   -0.5989  -3.3601   1.1035  -0.3525   1.8506   1.6758   999.0000   999.0000   999.0000  999.0000    3.1775    5.1061    1.9500    0.2673
  9.676694   -0.6210  -3.4151   1.0889  -0.3923   1.8482   1.6750   999.0000   999.0000   999.0000  999.0000    3.1470    5.1223    1.9255    0.2671
  9.698970   -0.6893  -3.5197   1.0559  -0.4581   1.8525   1.6798   999.0000   999.0000   999.0000  999.0000    3.1094    5.1292    1.9020    0.2676
  9.720160   -0.8047  -3.6713   0.9997  -0.5512   1.8634   1.6906   999.0000   999.0000   999.0000  999.0000    3.0566    5.1241    1.8777    0.2687
  9.740363   -0.9407  -3.8356   0.9322  -0.6515   1.8768   1.7038   999.0000   999.0000   999.0000  999.0000    3.0012    5.1157    1.8538    0.2702
  9.759667   -1.0806  -3.9987   0.8636  -0.7485   1.8929   1.7189   999.0000   999.0000   999.0000  999.0000    2.9498    5.1013    1.8334    0.2719
  9.778152   -1.1948  -4.1237   0.8078  -0.8234   1.9052   1.7304   999.0000   999.0000   999.0000  999.0000    2.9087    5.0920    1.8172    0.2732
  9.795880   -1.2987  -4.2343   0.7575  -0.8904   1.9168   1.7412   999.0000   999.0000   999.0000  999.0000    2.8724    5.0911    1.8008    0.2745
  9.812913   -1.3806  -4.3223   0.7177  -0.9450   1.9259   1.7499   999.0000   999.0000   999.0000  999.0000    2.8432    5.0986    1.7849    0.2755
  9.829304   -1.4479  -4.3990   0.6883  -0.9930   1.9338   1.7573   999.0000   999.0000   999.0000  999.0000    2.8199    5.1117    1.7739    0.2762
  9.845098   -1.5111  -4.4725   0.6620  -1.0388   1.9416   1.7645   999.0000   999.0000   999.0000  999.0000    2.7981    5.1253    1.7649    0.2767
  9.860338   -1.5681  -4.5423   0.6385  -1.0828   1.9492   1.7715   999.0000   999.0000   999.0000  999.0000    2.7756    5.1419    1.7546    0.2774
  9.875061   -1.6256  -4.6148   0.6154  -1.1285   1.9574   1.7789   999.0000   999.0000   999.0000  999.0000    2.7488    5.1630    1.7431    0.2781
  9.889301   -1.6838  -4.6885   0.5933  -1.1764   1.9657   1.7865   999.0000   999.0000   999.0000  999.0000    2.7177    5.1939    1.7306    0.2790
  9.903090   -1.7369  -4.7632   0.5721  -1.2253   1.9740   1.7943   999.0000   999.0000   999.0000  999.0000    2.6856    5.2204    1.7175    0.2799
  9.916454   -1.7886  -4.8323   0.5518  -1.2711   1.9821   1.8019   999.0000   999.0000   999.0000  999.0000    2.6602    5.2417    1.7041    0.2807
  9.929419   -1.8423  -4.9009   0.5307  -1.3169   1.9903   1.8095   999.0000   999.0000   999.0000  999.0000    2.6363    5.2634    1.6905    0.2814
  9.942008   -1.8951  -4.9644   0.5101  -1.3593   1.9984   1.8171   999.0000   999.0000   999.0000  999.0000    2.6177    5.2814    1.6768    0.2820
  9.954243   -1.9443  -5.0226   0.4914  -1.3979   2.0063   1.8246   999.0000   999.0000   999.0000  999.0000    2.6004    5.2985    1.6639    0.2826
  9.966142   -2.0065  -5.0899   0.4665  -1.4399   2.0171   1.8344   999.0000   999.0000   999.0000  999.0000    2.5845    5.3046    1.6525    0.2834
  9.977724   -2.0571  -5.1401   0.4459  -1.4720   2.0260   1.8424   999.0000   999.0000   999.0000  999.0000    2.5726    5.3034    1.6384    0.2840
  9.989004   -2.1079  -5.1890   0.4256  -1.5030   2.0352   1.8508   999.0000   999.0000   999.0000  999.0000    2.5645    5.2980    1.6232    0.2846
 10.000000   -2.1531  -5.2322   0.4075  -1.5302   2.0435   1.8583   999.0000   999.0000   999.0000  999.0000    2.5572    5.2929    1.6107    0.2851
 10.010724   -2.1943  -5.2722   0.3911  -1.5551   2.0516   1.8656   999.0000   999.0000   999.0000  999.0000    2.5498    5.2880    1.5986    0.2856
 10.021190   -2.2349  -5.3117   0.3746  -1.5796   2.0597   1.8729   999.0000   999.0000   999.0000  999.0000    2.5431    5.2812    1.5864    0.2862
 10.031408   -2.2765  -5.3515   0.3584  -1.6041   2.0679   1.8803   999.0000   999.0000   999.0000  999.0000    2.5352    5.2742    1.5759    0.2867
 10.041392   -2.3211  -5.3952   0.3400  -1.6307   2.0771   1.8885   999.0000   999.0000   999.0000  999.0000    2.5266    5.2642    1.5658    0.2874
 10.051152   -2.3603  -5.4334   0.3239  -1.6563   2.0856   1.8964   999.0000   999.0000   999.0000  999.0000    2.5193    5.2567    1.5564    0.2881
 10.060698   -2.3973  -5.4719   0.3078  -1.6801   2.0936   1.9036   999.0000   999.0000   999.0000  999.0000    2.5117    5.2476    1.5474    0.2885
 10.070038   -2.4351  -5.5096   0.2914  -1.7035   2.1009   1.9102   999.0000   999.0000   999.0000  999.0000    2.5026    5.2400    1.5415    0.2889
 10.079182   -2.4767  -5.5501   0.2733  -1.7284   2.1082   1.9169   999.0000   999.0000   999.0000  999.0000    2.4903    5.2350    1.5372    0.2892
 10.088136   -2.5180  -5.5898   0.2551  -1.7528   2.1155   1.9236   999.0000   999.0000   999.0000  999.0000    2.4781    5.2290    1.5334    0.2895
 10.096910   -2.5587  -5.6281   0.2377  -1.7763   2.1224   1.9299   999.0000   999.0000   999.0000  999.0000    2.4652    5.2234    1.5301    0.2898
 10.105510   -2.5999  -5.6663   0.2197  -1.8002   2.1291   1.9361   999.0000   999.0000   999.0000  999.0000    2.4511    5.2184    1.5275    0.2901
 10.113943   -2.6433  -5.7054   0.2008  -1.8246   2.1359   1.9424   999.0000   999.0000   999.0000  999.0000    2.4366    5.2134    1.5258    0.2903
 10.122216   -2.6922  -5.7484   0.1795  -1.8503   2.1437   1.9494   999.0000   999.0000   999.0000  999.0000    2.4207    5.2051    1.5255    0.2907
 10.130334   -2.7344  -5.7865   0.1610  -1.8735   2.1511   1.9562   999.0000   999.0000   999.0000  999.0000    2.4078    5.2000    1.5255    0.2909
 10.138303   -2.7746  -5.8232   0.1432  -1.8961   2.1582   1.9625   999.0000   999.0000   999.0000  999.0000    2.3947    5.1974    1.5254    0.2912
 10.146128   -2.8171  -5.8615   0.1246  -1.9194   2.1655   1.9691   999.0000   999.0000   999.0000  999.0000    2.3804    5.1947    1.5259    0.2914
