#                                                     Mon Jul 29 20:38:06 2019
#          I------------------------------------------------------------------------------------------------------------------------I
#          I                                                                                                                        I
#          I      BC_GALAXEV  ---  MODEL PARAMETERS:   Generic file name for this model = cb2018_z004_chab_hr_smiles_ssp            I
#          I                                                                                                                        I
#          I      TRACKS: Padova 2013 + Marigo 2013, X=0.740, Y=0.256, Z=0.004                                                      I
#          I                                                                                                                        I
#          I      S.F.R.: SSP = Zero Length Burst at t = 0                                                                          I
#          I                                                                                                                        I
#          I                                                                                                                        I
#          I      I.M.F.: Lognormal + power law                                                                                     I
#          I                                                                      mass in      number                               I
#          I                                                  from m     to m     segment    of stars      c                        I
#          I                                        lognormal   0.10     1.00      0.4057      1.3076                               I
#          I                                          x=1.3     1.00   100.00      0.5943      0.1827                               I
#          I                                                                                                                        I
#          I                                                           totals      1.0000      1.4903  0.6710 Mo/star               I
#          I                                                                                                                        I
#          I                                                                                                                        I
#          I                                                                                                                        I
#          I                                                                                                                        I
#          I      LISTED: Rest frame properties                                                                                     I
#          I                                                                                                                        I
#          I                                                                                                                        I
#          I                              (C) 1995-2017 G. Bruzual A. & S. Charlot - All Rights Reserved                            I
#          I------------------------------------------------------------------------------------------------------------------------I
#
#    (1)        (2)      (3)      (4)      (5)      (6)      (7)       (8)        (9)        (10)      (11)      (12)      (13)      (14)      (15)
#
# Index_No.    WO-1:    WO-2:    WO-3:    WO-4:    GC-1:    4000A    DTT-Ca1    DTT-Ca2    DTT-Ca3   DTT-MgI     DM-04     DM-04     DM-04       BH:
# log-age    HdeltaA  HgammaA  HdeltaF  HgammaF  D(4000)    B4_VN   CaII8498   CaII8542   CaII8662   MgI8807   H8_3889   H9_3835  H10_3798     BH-HK
#   (yr)        (A)      (A)      (A)      (A)       .        .         (A)        (A)        (A)       (A)       (A)       (A)       (A)        (A)
  4.000000    4.2959   4.5542   3.1900   3.6608   0.9547   0.9693   999.0000   999.0000   999.0000  999.0000    3.7201    2.4644    1.4617    0.0602
  4.301030    4.2959   4.5542   3.1900   3.6608   0.9547   0.9693   999.0000   999.0000   999.0000  999.0000    3.7201    2.4644    1.4617    0.0602
  4.477121    4.2959   4.5542   3.1900   3.6608   0.9547   0.9693   999.0000   999.0000   999.0000  999.0000    3.7201    2.4644    1.4617    0.0602
  4.602060    4.2959   4.5542   3.1900   3.6608   0.9547   0.9693   999.0000   999.0000   999.0000  999.0000    3.7201    2.4644    1.4617    0.0602
  4.698970    4.2959   4.5542   3.1900   3.6608   0.9547   0.9693   999.0000   999.0000   999.0000  999.0000    3.7201    2.4644    1.4617    0.0602
  4.778151    4.2959   4.5542   3.1900   3.6608   0.9547   0.9693   999.0000   999.0000   999.0000  999.0000    3.7201    2.4644    1.4617    0.0602
  4.845098    4.2908   4.5494   3.1864   3.6572   0.9547   0.9694   999.0000   999.0000   999.0000  999.0000    3.7187    2.4611    1.4598    0.0601
  4.903090    4.2511   4.5269   3.1553   3.6417   0.9539   0.9691   999.0000   999.0000   999.0000  999.0000    3.6997    2.4391    1.4461    0.0597
  4.954243    4.3155   4.5662   3.2032   3.6688   0.9550   0.9694   999.0000   999.0000   999.0000  999.0000    3.7348    2.4776    1.4683    0.0605
  5.000000    4.4294   4.6365   3.2883   3.7171   0.9568   0.9697   999.0000   999.0000   999.0000  999.0000    3.7969    2.5456    1.5076    0.0619
  5.060698    4.4336   4.6371   3.2914   3.7173   0.9568   0.9697   999.0000   999.0000   999.0000  999.0000    3.7989    2.5473    1.5079    0.0619
  5.113944    4.4295   4.6276   3.2901   3.7108   0.9570   0.9699   999.0000   999.0000   999.0000  999.0000    3.8034    2.5416    1.5042    0.0618
  5.161368    4.4253   4.6245   3.2869   3.7086   0.9569   0.9699   999.0000   999.0000   999.0000  999.0000    3.8009    2.5390    1.5024    0.0618
  5.204120    4.4242   4.6236   3.2861   3.7080   0.9569   0.9699   999.0000   999.0000   999.0000  999.0000    3.8002    2.5383    1.5020    0.0618
  5.243038    4.4217   4.6219   3.2842   3.7068   0.9568   0.9699   999.0000   999.0000   999.0000  999.0000    3.7988    2.5367    1.5009    0.0617
  5.255272    4.4204   4.6210   3.2837   3.7066   0.9569   0.9699   999.0000   999.0000   999.0000  999.0000    3.7997    2.5350    1.4999    0.0617
  5.278754    4.4180   4.6190   3.2835   3.7068   0.9571   0.9701   999.0000   999.0000   999.0000  999.0000    3.8042    2.5308    1.4972    0.0616
  5.301030    4.4151   4.6169   3.2815   3.7054   0.9571   0.9701   999.0000   999.0000   999.0000  999.0000    3.8032    2.5287    1.4959    0.0616
  5.397940    4.4136   4.6136   3.2801   3.7028   0.9569   0.9700   999.0000   999.0000   999.0000  999.0000    3.8009    2.5270    1.4938    0.0616
  5.477121    4.4060   4.6169   3.2776   3.7108   0.9574   0.9705   999.0000   999.0000   999.0000  999.0000    3.8143    2.5168    1.4876    0.0614
  5.544068    4.3952   4.6092   3.2693   3.7054   0.9571   0.9704   999.0000   999.0000   999.0000  999.0000    3.8076    2.5101    1.4831    0.0613
  5.602060    4.3864   4.6032   3.2626   3.7012   0.9569   0.9704   999.0000   999.0000   999.0000  999.0000    3.8022    2.5046    1.4795    0.0612
  5.653213    4.3786   4.5977   3.2567   3.6973   0.9568   0.9703   999.0000   999.0000   999.0000  999.0000    3.7974    2.4998    1.4764    0.0611
  5.698970    4.3692   4.5914   3.2495   3.6930   0.9566   0.9702   999.0000   999.0000   999.0000  999.0000    3.7918    2.4941    1.4726    0.0610
  5.740363    4.3637   4.5867   3.2453   3.6895   0.9564   0.9702   999.0000   999.0000   999.0000  999.0000    3.7880    2.4906    1.4702    0.0609
  5.778151    4.3545   4.5804   3.2383   3.6850   0.9562   0.9701   999.0000   999.0000   999.0000  999.0000    3.7824    2.4849    1.4665    0.0608
  5.812913    4.3440   4.5736   3.2303   3.6804   0.9560   0.9700   999.0000   999.0000   999.0000  999.0000    3.7762    2.4785    1.4623    0.0606
  5.845098    4.3374   4.5688   3.2252   3.6770   0.9559   0.9700   999.0000   999.0000   999.0000  999.0000    3.7720    2.4745    1.4596    0.0605
  5.875061    4.4914   4.6594   3.3396   3.7373   0.9580   0.9703   999.0000   999.0000   999.0000  999.0000    3.8503    2.5673    1.5128    0.0624
  5.903090    4.4999   4.6633   3.3457   3.7396   0.9581   0.9702   999.0000   999.0000   999.0000  999.0000    3.8536    2.5724    1.5154    0.0625
  5.929419    4.4890   4.6559   3.3374   3.7344   0.9579   0.9702   999.0000   999.0000   999.0000  999.0000    3.8471    2.5658    1.5112    0.0624
  5.954243    4.4777   4.6479   3.3287   3.7286   0.9576   0.9701   999.0000   999.0000   999.0000  999.0000    3.8401    2.5590    1.5067    0.0622
  5.977724    4.4703   4.6423   3.3230   3.7246   0.9575   0.9700   999.0000   999.0000   999.0000  999.0000    3.8352    2.5544    1.5037    0.0621
  6.000000    4.4559   4.6324   3.3120   3.7175   0.9572   0.9699   999.0000   999.0000   999.0000  999.0000    3.8264    2.5457    1.4982    0.0619
  6.041393    4.4383   4.6189   3.2982   3.7077   0.9567   0.9697   999.0000   999.0000   999.0000  999.0000    3.8147    2.5348    1.4906    0.0617
  6.079181    4.5721   4.6961   3.3970   3.7586   0.9585   0.9699   999.0000   999.0000   999.0000  999.0000    3.8811    2.6153    1.5359    0.0633
  6.113944    4.6671   4.7518   3.4672   3.7955   0.9598   0.9700   999.0000   999.0000   999.0000  999.0000    3.9287    2.6728    1.5683    0.0644
  6.146128    4.8864   4.8835   3.6298   3.8841   0.9629   0.9704   999.0000   999.0000   999.0000  999.0000    4.0419    2.8057    1.6445    0.0671
  6.176091    5.3468   5.1693   3.9723   4.0787   0.9698   0.9714   999.0000   999.0000   999.0000  999.0000    4.2873    3.0880    1.8087    0.0728
  6.204120    5.5044   5.2655   4.0896   4.1440   0.9721   0.9717   999.0000   999.0000   999.0000  999.0000    4.3705    3.1844    1.8642    0.0747
  6.230449    5.4921   5.2521   4.0799   4.1341   0.9716   0.9714   999.0000   999.0000   999.0000  999.0000    4.3606    3.1746    1.8558    0.0745
  6.255272    5.4797   5.2385   4.0698   4.1239   0.9710   0.9712   999.0000   999.0000   999.0000  999.0000    4.3503    3.1644    1.8469    0.0743
  6.278754    5.4751   5.2335   4.0660   4.1201   0.9708   0.9711   999.0000   999.0000   999.0000  999.0000    4.3464    3.1606    1.8436    0.0742
  6.301030    5.4655   5.2229   4.0582   4.1122   0.9704   0.9708   999.0000   999.0000   999.0000  999.0000    4.3384    3.1527    1.8366    0.0740
  6.322219    5.4506   5.2067   4.0463   4.1000   0.9697   0.9705   999.0000   999.0000   999.0000  999.0000    4.3262    3.1406    1.8262    0.0737
  6.342422    5.4363   5.1911   4.0348   4.0883   0.9691   0.9702   999.0000   999.0000   999.0000  999.0000    4.3145    3.1290    1.8161    0.0735
  6.361728    5.4246   5.1782   4.0253   4.0787   0.9686   0.9699   999.0000   999.0000   999.0000  999.0000    4.3048    3.1194    1.8078    0.0733
  6.380211    5.4119   5.1643   4.0150   4.0683   0.9681   0.9696   999.0000   999.0000   999.0000  999.0000    4.2943    3.1091    1.7987    0.0731
  6.397940    5.3975   5.1484   4.0033   4.0563   0.9674   0.9693   999.0000   999.0000   999.0000  999.0000    4.2823    3.0972    1.7884    0.0728
  6.414973    5.3772   5.1262   3.9870   4.0397   0.9666   0.9689   999.0000   999.0000   999.0000  999.0000    4.2656    3.0807    1.7741    0.0725
  6.431364    5.3529   5.0995   3.9673   4.0197   0.9655   0.9683   999.0000   999.0000   999.0000  999.0000    4.2456    3.0609    1.7569    0.0720
  6.447158    5.5222   5.2961   4.1439   4.1956   0.9737   0.9718   999.0000   999.0000   999.0000  999.0000    4.4281    3.2564    1.9548    0.0746
  6.462398    6.6158   6.4265   5.0258   5.0872   1.0301   1.0040   999.0000   999.0000   999.0000  999.0000    5.3383    4.1500    2.6929    0.0995
  6.477121    6.6779   6.4553   5.1300   5.1870   1.0521   1.0193   999.0000   999.0000   999.0000  999.0000    5.4651    4.3387    2.8638    0.1094
  6.491362    6.8774   6.4939   5.3865   5.3944   1.1237   1.0687   999.0000   999.0000   999.0000  999.0000    5.8248    4.8748    3.3056    0.1393
  6.505150    6.0850   5.5634   4.8785   4.8612   1.1377   1.0853   999.0000   999.0000   999.0000  999.0000    5.3478    4.5956    3.0982    0.1445
  6.518514    5.1800   4.3352   4.2775   4.1828   1.1814   1.1279   999.0000   999.0000   999.0000  999.0000    4.8584    4.3693    2.8914    0.1617
  6.531479    4.7504   3.6232   3.9387   3.7239   1.1855   1.1344   999.0000   999.0000   999.0000  999.0000    4.6366    4.2366    2.6946    0.1590
  6.544068    4.5507   3.1616   3.7727   3.4491   1.1992   1.1479   999.0000   999.0000   999.0000  999.0000    4.5992    4.2437    2.5898    0.1609
  6.556303    4.0055   2.2730   3.3974   2.9079   1.2037   1.1558   999.0000   999.0000   999.0000  999.0000    4.4030    4.1455    2.4201    0.1553
  6.568202    3.3473   1.2156   3.0054   2.2907   1.2350   1.1853   999.0000   999.0000   999.0000  999.0000    4.2051    4.1596    2.2605    0.1577
  6.579783    2.4848   0.0180   2.4648   1.6346   1.2744   1.2258   999.0000   999.0000   999.0000  999.0000    3.7970    4.0088    1.9962    0.1670
  6.591064    3.2744   1.3377   3.0421   2.4816   1.2752   1.2184   999.0000   999.0000   999.0000  999.0000    4.1512    4.2468    2.3569    0.1790
  6.602060    3.0150   0.7252   2.7652   2.1196   1.3001   1.2425   999.0000   999.0000   999.0000  999.0000    4.0028    4.2334    2.1876    0.1864
  6.612784    3.6244   1.7598   3.1739   2.7300   1.2909   1.2270   999.0000   999.0000   999.0000  999.0000    4.1727    4.3366    2.3938    0.1917
  6.623249    4.1216   2.6153   3.4774   3.1685   1.2601   1.1941   999.0000   999.0000   999.0000  999.0000    4.2464    4.3466    2.4937    0.1846
  6.633469    3.7194   2.2309   3.2017   2.9132   1.2550   1.1927   999.0000   999.0000   999.0000  999.0000    3.9148    4.1425    2.3215    0.1811
  6.643453    4.0779   2.7895   3.5018   3.2899   1.2504   1.1868   999.0000   999.0000   999.0000  999.0000    4.1805    4.2580    2.5215    0.1827
  6.653213    4.9115   4.0844   4.2037   4.1725   1.2394   1.1734   999.0000   999.0000   999.0000  999.0000    4.7668    4.5527    2.9859    0.1868
  6.662758    5.0858   4.2835   4.2890   4.2581   1.2355   1.1675   999.0000   999.0000   999.0000  999.0000    4.8541    4.5826    3.0042    0.1838
  6.672098    5.5736   4.7831   4.5814   4.5328   1.2360   1.1624   999.0000   999.0000   999.0000  999.0000    5.1720    4.7880    3.1395    0.1829
  6.681241    6.7410   6.0278   5.3328   5.2686   1.2374   1.1527   999.0000   999.0000   999.0000  999.0000    5.9541    5.3106    3.5195    0.1835
  6.690196    7.0377   6.2902   5.5312   5.4385   1.2385   1.1521   999.0000   999.0000   999.0000  999.0000    6.1861    5.4805    3.6197    0.1844
  6.698970    5.0024   3.8268   4.1065   3.8991   1.2408   1.1713   999.0000   999.0000   999.0000  999.0000    4.8375    4.6009    2.8276    0.1794
  6.720160    5.2636   4.0476   4.2517   4.0010   1.2289   1.1592   999.0000   999.0000   999.0000  999.0000    5.0071    4.6961    2.8911    0.1742
  6.740363    5.6061   4.5585   4.5036   4.2920   1.2062   1.1379   999.0000   999.0000   999.0000  999.0000    5.2133    4.7706    3.0299    0.1654
  6.759668    5.9678   5.0897   4.7641   4.5901   1.1802   1.1146   999.0000   999.0000   999.0000  999.0000    5.4266    4.8352    3.1560    0.1551
  6.778151    6.2016   5.4051   4.9321   4.7661   1.1631   1.0994   999.0000   999.0000   999.0000  999.0000    5.5782    4.8914    3.2404    0.1479
  6.795880    6.3697   5.6526   5.0535   4.8978   1.1452   1.0845   999.0000   999.0000   999.0000  999.0000    5.6772    4.9068    3.2908    0.1403
  6.812913    6.7012   6.0623   5.2721   5.1347   1.1402   1.0782   999.0000   999.0000   999.0000  999.0000    5.8774    5.0190    3.3944    0.1387
  6.829304    6.7743   6.0926   5.3150   5.1233   1.1261   1.0684   999.0000   999.0000   999.0000  999.0000    5.9271    4.9699    3.3527    0.1322
  6.845098    7.0581   6.5724   5.5069   5.3780   1.0980   1.0454   999.0000   999.0000   999.0000  999.0000    6.0010    4.9222    3.3963    0.1224
  6.860338    7.1111   6.6834   5.5490   5.4444   1.0945   1.0418   999.0000   999.0000   999.0000  999.0000    6.0263    4.9415    3.4300    0.1209
  6.875061    7.1305   6.7572   5.5690   5.4874   1.0897   1.0376   999.0000   999.0000   999.0000  999.0000    6.0285    4.9400    3.4469    0.1188
  6.903090    7.4477   7.1830   5.7658   5.7347   1.0913   1.0362   999.0000   999.0000   999.0000  999.0000    6.1965    5.0642    3.5478    0.1202
  6.929419    7.8099   7.5364   5.9862   5.9555   1.1095   1.0473   999.0000   999.0000   999.0000  999.0000    6.4359    5.2701    3.6757    0.1286
  6.954243    7.7108   7.4182   5.9336   5.8943   1.1082   1.0470   999.0000   999.0000   999.0000  999.0000    6.3862    5.2369    3.6545    0.1279
  6.977724    7.4203   7.1078   5.7541   5.7028   1.0971   1.0408   999.0000   999.0000   999.0000  999.0000    6.2033    5.0853    3.5545    0.1225
  7.000000    7.5213   7.2242   5.8074   5.7629   1.0989   1.0414   999.0000   999.0000   999.0000  999.0000    6.2556    5.1217    3.5746    0.1234
  7.021189    7.2576   6.9388   5.6417   5.5902   1.0925   1.0384   999.0000   999.0000   999.0000  999.0000    6.0916    5.0000    3.4881    0.1202
  7.041393    6.9692   6.6378   5.4699   5.4100   1.0840   1.0334   999.0000   999.0000   999.0000  999.0000    5.9204    4.8769    3.4189    0.1155
  7.060698    6.8757   6.5337   5.4092   5.3368   1.0769   1.0289   999.0000   999.0000   999.0000  999.0000    5.8564    4.8076    3.3739    0.1121
  7.079181    6.8268   6.4926   5.3678   5.2855   1.0633   1.0200   999.0000   999.0000   999.0000  999.0000    5.7974    4.7073    3.3007    0.1065
  7.096910    6.7629   6.4135   5.3136   5.2223   1.0596   1.0180   999.0000   999.0000   999.0000  999.0000    5.7442    4.6511    3.2509    0.1048
  7.113944    7.1663   6.8060   5.5924   5.5031   1.0829   1.0323   999.0000   999.0000   999.0000  999.0000    6.0428    4.9304    3.4447    0.1155
  7.130334    7.4594   7.0713   5.7918   5.6974   1.1029   1.0452   999.0000   999.0000   999.0000  999.0000    6.2650    5.1406    3.5795    0.1247
  7.146128    7.4215   7.0099   5.7692   5.6646   1.1041   1.0465   999.0000   999.0000   999.0000  999.0000    6.2490    5.1312    3.5673    0.1252
  7.161368    6.9838   6.5625   5.4757   5.3600   1.0815   1.0331   999.0000   999.0000   999.0000  999.0000    5.9391    4.8493    3.3713    0.1148
  7.176091    6.5973   6.1616   5.2279   5.0855   1.0608   1.0196   999.0000   999.0000   999.0000  999.0000    5.6885    4.6240    3.2402    0.1041
  7.204120    6.6345   6.1545   5.2722   5.0999   1.0668   1.0232   999.0000   999.0000   999.0000  999.0000    5.7555    4.6981    3.3073    0.1058
  7.230449    6.6717   6.1462   5.3167   5.1164   1.0741   1.0278   999.0000   999.0000   999.0000  999.0000    5.8237    4.7773    3.3752    0.1082
  7.255272    6.7102   6.1615   5.3564   5.1404   1.0792   1.0309   999.0000   999.0000   999.0000  999.0000    5.8780    4.8391    3.4286    0.1098
  7.278754    6.9929   6.3701   5.5240   5.3021   1.1116   1.0540   999.0000   999.0000   999.0000  999.0000    6.0881    5.0642    3.5320    0.1250
  7.301030    6.9278   6.0828   5.4573   5.1336   1.1305   1.0702   999.0000   999.0000   999.0000  999.0000    6.0933    5.0846    3.4751    0.1325
  7.322219    6.1452   4.9353   4.9307   4.4069   1.1174   1.0679   999.0000   999.0000   999.0000  999.0000    5.6541    4.7004    3.1438    0.1232
  7.342422    5.8007   4.4442   4.7133   4.1171   1.1184   1.0714   999.0000   999.0000   999.0000  999.0000    5.4831    4.5806    3.0376    0.1218
  7.361728    5.8208   4.4596   4.7394   4.1384   1.1225   1.0737   999.0000   999.0000   999.0000  999.0000    5.5222    4.6323    3.0828    0.1229
  7.380211    5.8529   4.5077   4.7700   4.1753   1.1250   1.0746   999.0000   999.0000   999.0000  999.0000    5.5592    4.6779    3.1241    0.1235
  7.397940    5.9032   4.6115   4.8130   4.2541   1.1309   1.0781   999.0000   999.0000   999.0000  999.0000    5.5994    4.7400    3.1795    0.1264
  7.414973    6.2622   5.1001   5.0575   4.5758   1.1441   1.0849   999.0000   999.0000   999.0000  999.0000    5.8169    4.9457    3.3427    0.1339
  7.431364    6.5688   5.5001   5.2659   4.8376   1.1548   1.0900   999.0000   999.0000   999.0000  999.0000    6.0084    5.1210    3.4810    0.1395
  7.447158    6.8249   5.8268   5.4393   5.0468   1.1613   1.0924   999.0000   999.0000   999.0000  999.0000    6.1693    5.2601    3.5924    0.1429
  7.462398    7.0744   6.1377   5.6010   5.2351   1.1644   1.0923   999.0000   999.0000   999.0000  999.0000    6.3185    5.3755    3.6841    0.1445
  7.477121    7.2927   6.3943   5.7346   5.3827   1.1666   1.0920   999.0000   999.0000   999.0000  999.0000    6.4461    5.4654    3.7525    0.1456
  7.491362    7.2609   6.3703   5.7172   5.3731   1.1690   1.0938   999.0000   999.0000   999.0000  999.0000    6.4283    5.4651    3.7594    0.1466
  7.505150    7.2567   6.3707   5.7226   5.3833   1.1726   1.0962   999.0000   999.0000   999.0000  999.0000    6.4362    5.4878    3.7827    0.1480
  7.518514    7.2846   6.4066   5.7471   5.4131   1.1760   1.0982   999.0000   999.0000   999.0000  999.0000    6.4628    5.5217    3.8128    0.1494
  7.531479    7.3380   6.4718   5.7901   5.4610   1.1789   1.0996   999.0000   999.0000   999.0000  999.0000    6.5075    5.5680    3.8524    0.1505
  7.544068    7.4130   6.5631   5.8508   5.5266   1.1809   1.1000   999.0000   999.0000   999.0000  999.0000    6.5698    5.6268    3.9026    0.1514
  7.556303    7.5340   6.7233   5.9384   5.6299   1.1812   1.0988   999.0000   999.0000   999.0000  999.0000    6.6511    5.6925    3.9595    0.1516
  7.568202    7.6762   6.8948   6.0340   5.7350   1.1819   1.0979   999.0000   999.0000   999.0000  999.0000    6.7436    5.7626    4.0161    0.1520
  7.579783    7.6411   6.8575   6.0134   5.7121   1.1815   1.0976   999.0000   999.0000   999.0000  999.0000    6.7270    5.7543    4.0144    0.1514
  7.591064    7.5789   6.7870   5.9765   5.6721   1.1823   1.0984   999.0000   999.0000   999.0000  999.0000    6.6964    5.7401    4.0078    0.1514
  7.602060    7.5272   6.7273   5.9451   5.6377   1.1832   1.0993   999.0000   999.0000   999.0000  999.0000    6.6713    5.7289    4.0021    0.1515
  7.628389    7.4857   6.6697   5.9085   5.5963   1.1876   1.1026   999.0000   999.0000   999.0000  999.0000    6.6496    5.7248    3.9988    0.1526
  7.653213    7.4480   6.6283   5.8862   5.5712   1.1891   1.1035   999.0000   999.0000   999.0000  999.0000    6.6367    5.7267    4.0078    0.1526
  7.676693    7.4650   6.6604   5.9017   5.5898   1.1882   1.1021   999.0000   999.0000   999.0000  999.0000    6.6525    5.7428    4.0312    0.1518
  7.698970    7.4458   6.6413   5.8962   5.5816   1.1890   1.1023   999.0000   999.0000   999.0000  999.0000    6.6554    5.7567    4.0490    0.1516
  7.728354    7.4606   6.6619   5.9261   5.6118   1.1934   1.1045   999.0000   999.0000   999.0000  999.0000    6.6993    5.8184    4.1058    0.1528
  7.755875    7.5770   6.7858   6.0053   5.6919   1.1997   1.1076   999.0000   999.0000   999.0000  999.0000    6.7952    5.9093    4.1734    0.1550
  7.778151    7.6930   6.9304   6.0787   5.7794   1.2026   1.1085   999.0000   999.0000   999.0000  999.0000    6.8658    5.9688    4.2244    0.1563
  7.845098    7.5487   6.7598   6.0074   5.6940   1.2088   1.1126   999.0000   999.0000   999.0000  999.0000    6.8245    5.9876    4.2598    0.1569
  7.903090    7.5624   6.7543   6.0307   5.7039   1.2183   1.1181   999.0000   999.0000   999.0000  999.0000    6.8815    6.0786    4.3308    0.1594
  7.954243    7.8668   7.1080   6.2266   5.9099   1.2209   1.1165   999.0000   999.0000   999.0000  999.0000    7.0777    6.2245    4.4593    0.1599
  8.000000    8.0915   7.3323   6.3633   6.0426   1.2317   1.1219   999.0000   999.0000   999.0000  999.0000    7.2342    6.3673    4.5635    0.1637
  8.041392    8.1273   7.3770   6.4216   6.0959   1.2342   1.1220   999.0000   999.0000   999.0000  999.0000    7.3032    6.4535    4.6449    0.1639
  8.079182    8.2876   7.5265   6.5086   6.1780   1.2456   1.1283   999.0000   999.0000   999.0000  999.0000    7.4113    6.5543    4.7118    0.1676
  8.146128    8.5367   7.8029   6.6548   6.3320   1.2536   1.1313   999.0000   999.0000   999.0000  999.0000    7.5623    6.6803    4.7951    0.1709
  8.204120    8.6256   7.8616   6.6968   6.3653   1.2671   1.1401   999.0000   999.0000   999.0000  999.0000    7.6352    6.7686    4.8187    0.1760
  8.255273    8.6529   7.8893   6.6967   6.3776   1.2758   1.1465   999.0000   999.0000   999.0000  999.0000    7.6296    6.7859    4.8117    0.1804
  8.301030    8.6345   7.8505   6.6787   6.3539   1.2838   1.1520   999.0000   999.0000   999.0000  999.0000    7.6302    6.8217    4.8076    0.1833
  8.352182    8.7057   7.8600   6.6726   6.3292   1.3016   1.1637   999.0000   999.0000   999.0000  999.0000    7.6590    6.8825    4.7858    0.1888
  8.397940    8.8864   7.9888   6.7455   6.3718   1.3159   1.1712   999.0000   999.0000   999.0000  999.0000    7.7730    7.0274    4.8071    0.1927
  8.439333    9.1735   8.2417   6.8616   6.4689   1.3383   1.1843   999.0000   999.0000   999.0000  999.0000    7.9218    7.2237    4.8259    0.1994
  8.477121    9.5496   8.5562   7.0437   6.6293   1.3643   1.1997   999.0000   999.0000   999.0000  999.0000    8.1660    7.4509    4.9028    0.2087
  8.544068   10.2793   9.1448   7.3662   6.9008   1.4236   1.2356   999.0000   999.0000   999.0000  999.0000    8.6351    7.8736    5.0252    0.2284
  8.602060   10.8158   9.6271   7.6158   7.1203   1.4609   1.2571   999.0000   999.0000   999.0000  999.0000    8.9704    8.1710    5.1248    0.2406
  8.653213   10.6394   9.4564   7.5566   7.0603   1.4556   1.2538   999.0000   999.0000   999.0000  999.0000    8.9001    8.1595    5.1284    0.2383
  8.698970   10.3669   9.1669   7.4487   6.9416   1.4485   1.2502   999.0000   999.0000   999.0000  999.0000    8.7918    8.1371    5.1182    0.2352
  8.740363   10.0144   8.7883   7.3020   6.7784   1.4395   1.2455   999.0000   999.0000   999.0000  999.0000    8.6606    8.0832    5.0945    0.2306
  8.778152    9.8518   8.6179   7.2363   6.7057   1.4344   1.2426   999.0000   999.0000   999.0000  999.0000    8.6034    8.0551    5.0872    0.2281
  8.812913    9.5532   8.3165   7.1280   6.5881   1.4231   1.2359   999.0000   999.0000   999.0000  999.0000    8.5014    8.0178    5.0859    0.2235
  8.845098    9.2976   8.0300   6.9728   6.4277   1.4248   1.2391   999.0000   999.0000   999.0000  999.0000    8.3491    7.9423    5.0105    0.2227
  8.875061    9.0681   7.7608   6.7788   6.2400   1.4350   1.2492   999.0000   999.0000   999.0000  999.0000    8.1500    7.8079    4.8750    0.2243
  8.903090    8.9114   7.5654   6.6316   6.0934   1.4464   1.2594   999.0000   999.0000   999.0000  999.0000    8.0019    7.7314    4.7670    0.2264
  8.929419    8.6721   7.2894   6.4575   5.9188   1.4531   1.2669   999.0000   999.0000   999.0000  999.0000    7.8221    7.6249    4.6585    0.2271
  8.954243    8.3204   6.9172   6.2356   5.7063   1.4545   1.2713   999.0000   999.0000   999.0000  999.0000    7.5849    7.4715    4.5367    0.2263
  9.000000    7.4781   6.0072   5.7290   5.2005   1.4590   1.2827   999.0000   999.0000   999.0000  999.0000    7.0490    7.1960    4.2755    0.2248
  9.041392    7.1066   5.5986   5.4427   4.9263   1.4702   1.2949   999.0000   999.0000   999.0000  999.0000    6.7436    6.9989    4.0863    0.2257
  9.079182    6.7275   5.1694   5.1381   4.6309   1.4850   1.3104   999.0000   999.0000   999.0000  999.0000    6.4141    6.8225    3.8736    0.2277
  9.113943    6.2925   4.6053   4.8066   4.2708   1.5087   1.3337   999.0000   999.0000   999.0000  999.0000    6.1136    6.6671    3.6789    0.2322
  9.146128    5.3191   3.4302   4.2198   3.6378   1.5361   1.3663   999.0000   999.0000   999.0000  999.0000    5.5830    6.3956    3.4149    0.2365
  9.176091    4.3082   2.1896   3.6436   3.0007   1.5678   1.4037   999.0000   999.0000   999.0000  999.0000    5.0805    6.1747    3.1854    0.2424
  9.204120    3.5971   1.2750   3.2830   2.5380   1.5998   1.4356   999.0000   999.0000   999.0000  999.0000    4.8317    6.0159    3.0979    0.2452
  9.230449    3.8274   1.8371   3.4934   2.8824   1.5448   1.3903   999.0000   999.0000   999.0000  999.0000    4.8249    5.9304    3.1612    0.2336
  9.255273    3.1449   1.1318   3.1464   2.5330   1.5485   1.4006   999.0000   999.0000   999.0000  999.0000    4.4302    5.7387    3.0179    0.2322
  9.278753    2.7306   0.7121   2.9397   2.3259   1.5505   1.4068   999.0000   999.0000   999.0000  999.0000    4.1817    5.6212    2.9341    0.2315
  9.301030    2.5894   0.5403   2.8518   2.2305   1.5543   1.4121   999.0000   999.0000   999.0000  999.0000    4.0810    5.5923    2.8869    0.2330
  9.322219    2.3311   0.2355   2.6883   2.0535   1.5604   1.4199   999.0000   999.0000   999.0000  999.0000    3.9072    5.5218    2.8006    0.2339
  9.342422    2.1797   0.0362   2.5935   1.9457   1.5675   1.4282   999.0000   999.0000   999.0000  999.0000    3.8081    5.5044    2.7531    0.2363
  9.361728    2.0890  -0.1017   2.5366   1.8791   1.5766   1.4380   999.0000   999.0000   999.0000  999.0000    3.7425    5.5311    2.7256    0.2407
  9.380211    1.9165  -0.3349   2.4266   1.7543   1.5879   1.4505   999.0000   999.0000   999.0000  999.0000    3.6189    5.5448    2.6683    0.2450
  9.397940    1.5331  -0.8961   2.1912   1.4563   1.6186   1.4821   999.0000   999.0000   999.0000  999.0000    3.4196    5.5695    2.5651    0.2530
  9.414973    1.2429  -1.3043   2.0030   1.2337   1.6390   1.5037   999.0000   999.0000   999.0000  999.0000    3.2473    5.5783    2.4656    0.2579
  9.447158    0.9910  -1.6288   1.8438   1.0516   1.6532   1.5191   999.0000   999.0000   999.0000  999.0000    3.0656    5.5598    2.3777    0.2616
  9.477121    0.8576  -1.7882   1.7662   0.9601   1.6595   1.5263   999.0000   999.0000   999.0000  999.0000    2.9670    5.5585    2.3395    0.2631
  9.511884    0.8062  -1.8245   1.7270   0.9340   1.6571   1.5256   999.0000   999.0000   999.0000  999.0000    2.8852    5.5294    2.3083    0.2637
  9.544068    0.5676  -2.1394   1.5735   0.7618   1.6712   1.5419   999.0000   999.0000   999.0000  999.0000    2.7247    5.4824    2.2305    0.2675
  9.574031    0.3221  -2.4454   1.4203   0.5874   1.6842   1.5564   999.0000   999.0000   999.0000  999.0000    2.5549    5.4509    2.1491    0.2700
  9.602060    0.1917  -2.5581   1.3331   0.5080   1.6824   1.5561   999.0000   999.0000   999.0000  999.0000    2.4127    5.4041    2.0862    0.2694
  9.628389    0.0511  -2.7202   1.2401   0.4121   1.6847   1.5603   999.0000   999.0000   999.0000  999.0000    2.2904    5.3541    2.0260    0.2701
  9.653213   -0.1014  -2.9145   1.1418   0.3019   1.6916   1.5685   999.0000   999.0000   999.0000  999.0000    2.1781    5.3212    1.9680    0.2716
  9.676694   -0.1957  -3.0430   1.0797   0.2315   1.6971   1.5751   999.0000   999.0000   999.0000  999.0000    2.1032    5.3079    1.9306    0.2732
  9.698970   -0.2744  -3.1622   1.0250   0.1682   1.7050   1.5833   999.0000   999.0000   999.0000  999.0000    2.0396    5.3191    1.8995    0.2753
  9.720160   -0.3406  -3.2722   0.9839   0.1146   1.7141   1.5926   999.0000   999.0000   999.0000  999.0000    1.9933    5.3399    1.8797    0.2779
  9.740363   -0.4009  -3.3720   0.9474   0.0655   1.7223   1.6011   999.0000   999.0000   999.0000  999.0000    1.9544    5.3610    1.8621    0.2801
  9.759667   -0.4733  -3.4891   0.9040   0.0066   1.7307   1.6098   999.0000   999.0000   999.0000  999.0000    1.9117    5.3815    1.8399    0.2821
  9.778152   -0.5455  -3.6004   0.8604  -0.0510   1.7380   1.6176   999.0000   999.0000   999.0000  999.0000    1.8688    5.3951    1.8163    0.2838
  9.795880   -0.6352  -3.7186   0.8127  -0.1161   1.7446   1.6249   999.0000   999.0000   999.0000  999.0000    1.8121    5.4079    1.7855    0.2851
  9.812913   -0.7009  -3.8173   0.7714  -0.1694   1.7501   1.6309   999.0000   999.0000   999.0000  999.0000    1.7714    5.4114    1.7604    0.2862
  9.829304   -0.7591  -3.9102   0.7351  -0.2185   1.7557   1.6368   999.0000   999.0000   999.0000  999.0000    1.7396    5.4170    1.7396    0.2874
  9.845098   -0.8155  -4.0004   0.7004  -0.2657   1.7614   1.6428   999.0000   999.0000   999.0000  999.0000    1.7091    5.4242    1.7198    0.2885
  9.860338   -0.8659  -4.0832   0.6701  -0.3074   1.7669   1.6487   999.0000   999.0000   999.0000  999.0000    1.6837    5.4336    1.7032    0.2897
  9.875061   -0.9193  -4.1698   0.6378  -0.3513   1.7728   1.6551   999.0000   999.0000   999.0000  999.0000    1.6536    5.4439    1.6850    0.2911
  9.889301   -0.9644  -4.2463   0.6103  -0.3896   1.7777   1.6603   999.0000   999.0000   999.0000  999.0000    1.6296    5.4534    1.6677    0.2920
  9.903090   -1.0042  -4.3168   0.5862  -0.4243   1.7823   1.6651   999.0000   999.0000   999.0000  999.0000    1.6100    5.4634    1.6521    0.2929
  9.916454   -1.0385  -4.3788   0.5656  -0.4549   1.7862   1.6693   999.0000   999.0000   999.0000  999.0000    1.5940    5.4733    1.6382    0.2936
  9.929419   -1.0701  -4.4360   0.5464  -0.4836   1.7896   1.6728   999.0000   999.0000   999.0000  999.0000    1.5786    5.4828    1.6240    0.2941
  9.942008   -1.0998  -4.4910   0.5285  -0.5108   1.7928   1.6762   999.0000   999.0000   999.0000  999.0000    1.5663    5.4927    1.6105    0.2945
  9.954243   -1.1337  -4.5508   0.5087  -0.5412   1.7963   1.6799   999.0000   999.0000   999.0000  999.0000    1.5527    5.5031    1.5963    0.2950
  9.966142   -1.1855  -4.6280   0.4809  -0.5822   1.8022   1.6857   999.0000   999.0000   999.0000  999.0000    1.5294    5.5245    1.5807    0.2957
  9.977724   -1.2344  -4.6999   0.4549  -0.6209   1.8077   1.6912   999.0000   999.0000   999.0000  999.0000    1.5077    5.5454    1.5658    0.2963
  9.989004   -1.2827  -4.7694   0.4291  -0.6589   1.8130   1.6964   999.0000   999.0000   999.0000  999.0000    1.4853    5.5661    1.5504    0.2968
 10.000000   -1.3298  -4.8371   0.4040  -0.6961   1.8182   1.7015   999.0000   999.0000   999.0000  999.0000    1.4642    5.5869    1.5352    0.2973
 10.010724   -1.3738  -4.9003   0.3811  -0.7305   1.8231   1.7063   999.0000   999.0000   999.0000  999.0000    1.4454    5.6074    1.5215    0.2978
 10.021190   -1.4168  -4.9614   0.3587  -0.7640   1.8279   1.7110   999.0000   999.0000   999.0000  999.0000    1.4269    5.6278    1.5080    0.2982
 10.031408   -1.4597  -5.0223   0.3362  -0.7975   1.8327   1.7156   999.0000   999.0000   999.0000  999.0000    1.4088    5.6485    1.4943    0.2986
 10.041392   -1.4995  -5.0818   0.3152  -0.8288   1.8376   1.7205   999.0000   999.0000   999.0000  999.0000    1.3934    5.6647    1.4822    0.2992
 10.051152   -1.5331  -5.1322   0.2971  -0.8550   1.8418   1.7248   999.0000   999.0000   999.0000  999.0000    1.3799    5.6774    1.4719    0.2998
 10.060698   -1.5652  -5.1808   0.2802  -0.8798   1.8460   1.7291   999.0000   999.0000   999.0000  999.0000    1.3679    5.6904    1.4623    0.3003
 10.070038   -1.5962  -5.2282   0.2638  -0.9039   1.8502   1.7333   999.0000   999.0000   999.0000  999.0000    1.3567    5.7038    1.4531    0.3009
 10.079182   -1.6018  -5.2628   0.2557  -0.9176   1.8534   1.7366   999.0000   999.0000   999.0000  999.0000    1.3700    5.7040    1.4525    0.3014
 10.088136   -1.6258  -5.3021   0.2437  -0.9361   1.8572   1.7403   999.0000   999.0000   999.0000  999.0000    1.3654    5.7162    1.4469    0.3019
 10.096910   -1.6458  -5.3381   0.2330  -0.9531   1.8605   1.7437   999.0000   999.0000   999.0000  999.0000    1.3646    5.7240    1.4419    0.3023
 10.105510   -1.6665  -5.3729   0.2228  -0.9695   1.8638   1.7470   999.0000   999.0000   999.0000  999.0000    1.3629    5.7330    1.4370    0.3027
 10.113943   -1.6831  -5.4046   0.2142  -0.9838   1.8669   1.7500   999.0000   999.0000   999.0000  999.0000    1.3648    5.7406    1.4334    0.3030
 10.122216   -1.7032  -5.4397   0.2045  -0.9995   1.8706   1.7537   999.0000   999.0000   999.0000  999.0000    1.3645    5.7490    1.4298    0.3035
 10.130334   -1.7170  -5.4645   0.1976  -1.0101   1.8734   1.7565   999.0000   999.0000   999.0000  999.0000    1.3630    5.7527    1.4280    0.3040
 10.138303   -1.7344  -5.4906   0.1897  -1.0218   1.8765   1.7596   999.0000   999.0000   999.0000  999.0000    1.3561    5.7589    1.4257    0.3047
 10.146128   -1.7466  -5.5133   0.1839  -1.0310   1.8792   1.7624   999.0000   999.0000   999.0000  999.0000    1.3551    5.7628    1.4249    0.3052
